accounter,LoopSpeedArr,UploadSpeedArr,set_index,Ax,Ay,Az,gx,gy,gz,temp,timingForThisSet,timeDifference
892,264,202,0,0.47,2.46,9.11,-0.01,-0.02,0.0,29.71,3.0,
892,264,202,1,0.47,2.53,9.18,-0.01,-0.01,0.0,29.89,3.0,
892,264,202,2,0.46,2.51,9.22,-0.01,-0.01,0.0,29.8,3.0,
892,264,202,3,0.43,2.45,9.23,-0.01,-0.02,-0.0,29.8,3.0,
892,264,202,4,0.47,2.5,9.15,-0.01,-0.01,0.0,29.8,3.0,
892,264,202,5,0.45,2.5,9.08,-0.01,-0.01,-0.0,29.8,3.0,
892,264,202,6,0.48,2.47,9.17,-0.01,-0.01,-0.0,29.85,3.0,
892,264,202,7,0.51,2.54,9.13,-0.01,-0.01,0.0,29.75,3.0,
892,264,202,8,0.53,2.51,9.19,-0.01,-0.02,0.0,29.85,3.0,
892,264,202,9,0.5,2.5,9.17,-0.01,-0.01,0.0,29.85,3.0,
892,264,202,10,0.47,2.49,9.21,-0.01,-0.02,0.0,29.8,3.0,
892,264,202,11,0.5,2.5,9.14,-0.01,-0.01,0.0,29.8,3.0,
892,264,202,12,0.46,2.48,9.08,-0.01,-0.02,0.0,29.8,3.0,
892,264,202,13,0.45,2.55,9.23,-0.01,-0.01,-0.0,29.75,2.0,
892,264,202,14,0.48,2.51,9.15,-0.01,-0.01,0.0,29.75,2.0,
892,264,202,15,0.43,2.48,9.12,-0.01,-0.01,-0.0,29.85,2.0,
892,264,202,16,0.44,2.47,9.11,-0.01,-0.01,0.0,29.94,3.0,
892,264,202,17,0.49,2.5,9.11,-0.01,-0.01,0.0,29.75,3.0,
892,264,202,18,0.38,2.49,9.08,-0.01,-0.02,0.0,29.8,3.0,
892,264,202,19,0.46,2.48,9.14,-0.01,-0.01,0.0,29.8,3.0,
893,264,202,0,0.47,2.46,9.11,-0.01,-0.02,0.0,29.71,3.0,
893,264,202,1,0.47,2.53,9.18,-0.01,-0.01,0.0,29.89,3.0,
893,264,202,2,0.46,2.51,9.22,-0.01,-0.01,0.0,29.8,3.0,
893,264,202,3,0.43,2.45,9.23,-0.01,-0.02,-0.0,29.8,3.0,
893,264,202,4,0.47,2.5,9.15,-0.01,-0.01,0.0,29.8,3.0,
893,264,202,5,0.45,2.5,9.08,-0.01,-0.01,-0.0,29.8,3.0,
893,264,202,6,0.48,2.47,9.17,-0.01,-0.01,-0.0,29.85,3.0,
893,264,202,7,0.51,2.54,9.13,-0.01,-0.01,0.0,29.75,3.0,
893,264,202,8,0.53,2.51,9.19,-0.01,-0.02,0.0,29.85,3.0,
893,264,202,9,0.5,2.5,9.17,-0.01,-0.01,0.0,29.85,3.0,
893,264,202,10,0.47,2.49,9.21,-0.01,-0.02,0.0,29.8,3.0,
893,264,202,11,0.5,2.5,9.14,-0.01,-0.01,0.0,29.8,3.0,
893,264,202,12,0.46,2.48,9.08,-0.01,-0.02,0.0,29.8,3.0,
893,264,202,13,0.45,2.55,9.23,-0.01,-0.01,-0.0,29.75,2.0,
893,264,202,14,0.48,2.51,9.15,-0.01,-0.01,0.0,29.75,2.0,
893,264,202,15,0.43,2.48,9.12,-0.01,-0.01,-0.0,29.85,2.0,
893,264,202,16,0.44,2.47,9.11,-0.01,-0.01,0.0,29.94,3.0,
893,264,202,17,0.49,2.5,9.11,-0.01,-0.01,0.0,29.75,3.0,
893,264,202,18,0.38,2.49,9.08,-0.01,-0.02,0.0,29.8,3.0,
893,264,202,19,0.46,2.48,9.14,-0.01,-0.01,0.0,29.8,3.0,
894,273,212,0,0.44,2.52,9.14,-0.01,-0.01,-0.0,29.71,3.0,
894,273,212,1,0.48,2.45,9.14,-0.01,-0.01,0.0,29.75,3.0,
894,273,212,2,0.42,2.49,9.21,-0.01,-0.02,0.0,29.75,3.0,
894,273,212,3,0.5,2.49,9.15,-0.01,-0.01,-0.0,29.8,3.0,
894,273,212,4,0.44,2.49,9.2,-0.01,-0.02,0.0,29.71,3.0,
894,273,212,5,0.46,2.52,9.13,-0.01,-0.02,-0.0,29.89,3.0,
894,273,212,6,0.46,2.44,9.1,-0.01,-0.01,-0.0,29.8,3.0,
894,273,212,7,0.5,2.51,9.14,-0.01,-0.01,-0.0,29.75,2.0,
894,273,212,8,0.52,2.44,9.19,-0.01,-0.01,0.0,29.66,2.0,
894,273,212,9,0.53,2.46,9.08,-0.01,-0.01,-0.0,29.85,3.0,
894,273,212,10,0.45,2.5,9.2,-0.01,-0.01,0.0,29.8,3.0,
894,273,212,11,0.47,2.47,9.12,-0.01,-0.01,0.0,29.89,3.0,
894,273,212,12,0.47,2.54,9.17,-0.01,-0.01,-0.0,29.8,3.0,
894,273,212,13,0.51,2.5,9.12,-0.01,-0.01,0.0,29.8,3.0,
894,273,212,14,0.43,2.53,9.13,-0.01,-0.02,0.0,29.75,3.0,
894,273,212,15,0.47,2.49,9.17,-0.01,-0.01,-0.0,29.75,3.0,
894,273,212,16,0.46,2.48,9.12,-0.01,-0.01,0.0,29.75,3.0,
894,273,212,17,0.49,2.51,9.09,-0.01,-0.01,-0.0,29.89,3.0,
894,273,212,18,0.47,2.55,9.1,-0.01,-0.02,-0.0,29.89,3.0,
894,273,212,19,0.49,2.49,9.1,-0.01,-0.01,0.01,29.8,3.0,
895,270,209,0,0.44,2.54,9.25,-0.01,-0.01,-0.0,29.75,4.0,
895,270,209,1,0.44,2.49,9.11,-0.01,-0.02,0.0,29.8,3.0,
895,270,209,2,0.41,2.48,9.11,-0.01,-0.01,-0.0,29.8,3.0,
895,270,209,3,0.5,2.49,9.12,-0.01,-0.02,0.0,29.8,3.0,
895,270,209,4,0.45,2.47,9.13,-0.01,-0.01,0.0,29.75,2.0,
895,270,209,5,0.54,2.47,9.08,-0.01,-0.02,-0.0,29.75,2.0,
895,270,209,6,0.49,2.53,9.11,-0.01,-0.02,-0.0,29.85,2.0,
895,270,209,7,0.42,2.57,9.13,-0.01,-0.02,0.0,29.75,3.0,
895,270,209,8,0.44,2.48,9.15,-0.01,-0.01,-0.0,29.8,3.0,
895,270,209,9,0.46,2.5,9.14,-0.01,-0.02,-0.0,29.8,3.0,
895,270,209,10,0.43,2.52,9.1,-0.01,-0.02,-0.0,29.8,3.0,
895,270,209,11,0.51,2.55,9.09,-0.01,-0.01,-0.0,29.85,3.0,
895,270,209,12,0.44,2.46,9.18,-0.01,-0.01,-0.0,29.85,3.0,
895,270,209,13,0.46,2.48,9.16,-0.01,-0.02,0.0,29.75,3.0,
895,270,209,14,0.48,2.47,9.11,-0.01,-0.01,0.0,29.75,3.0,
895,270,209,15,0.46,2.47,9.09,-0.01,-0.02,-0.0,29.89,3.0,
895,270,209,16,0.45,2.49,9.09,-0.01,-0.01,0.0,29.8,3.0,
895,270,209,17,0.48,2.43,9.17,-0.01,-0.01,0.0,29.71,3.0,
895,270,209,18,0.49,2.48,9.15,-0.01,-0.02,0.0,29.8,3.0,
895,270,209,19,0.46,2.45,9.25,-0.01,-0.01,0.0,29.75,3.0,
896,262,201,0,0.5,2.55,9.21,-0.01,-0.01,0.0,29.75,3.0,
896,262,201,1,0.44,2.49,9.14,-0.01,-0.02,0.0,29.75,3.0,
896,262,201,2,0.41,2.45,9.11,-0.01,-0.01,0.0,29.85,3.0,
896,262,201,3,0.46,2.52,9.18,-0.02,-0.01,-0.0,29.75,3.0,
896,262,201,4,0.56,2.54,9.04,-0.01,-0.01,0.0,29.75,3.0,
896,262,201,5,0.47,2.52,9.15,-0.01,-0.01,0.0,29.8,3.0,
896,262,201,6,0.46,2.5,9.18,-0.01,-0.01,-0.0,29.8,2.0,
896,262,201,7,0.52,2.44,9.14,-0.01,-0.01,0.0,29.71,2.0,
896,262,201,8,0.43,2.48,9.14,-0.01,-0.01,0.0,29.75,3.0,
896,262,201,9,0.51,2.48,9.17,-0.01,-0.01,0.0,29.75,3.0,
896,262,201,10,0.47,2.45,9.02,-0.01,-0.02,0.0,29.75,3.0,
896,262,201,11,0.51,2.48,9.1,-0.01,-0.01,-0.0,29.8,3.0,
896,262,201,12,0.42,2.48,9.13,-0.01,-0.02,-0.0,29.89,3.0,
896,262,201,13,0.55,2.53,9.17,-0.01,-0.01,0.0,29.8,3.0,
896,262,201,14,0.45,2.51,9.11,-0.01,-0.02,-0.0,29.85,3.0,
896,262,201,15,0.5,2.52,9.08,-0.01,-0.01,0.0,29.85,3.0,
896,262,201,16,0.51,2.49,9.12,-0.01,-0.01,0.0,29.85,3.0,
896,262,201,17,0.45,2.53,9.32,-0.01,-0.02,-0.0,29.8,3.0,
896,262,201,18,0.54,2.47,9.13,-0.01,-0.01,-0.0,29.89,3.0,
896,262,201,19,0.49,2.48,9.08,-0.01,-0.01,0.0,29.85,3.0,
897,270,208,0,0.45,2.44,9.21,-0.01,-0.01,0.0,29.85,3.0,
897,270,208,1,0.49,2.49,9.14,-0.01,-0.01,0.0,29.8,3.0,
897,270,208,2,0.45,2.48,9.17,-0.01,-0.02,-0.0,29.75,3.0,
897,270,208,3,0.51,2.54,9.23,-0.01,-0.01,0.0,29.85,3.0,
897,270,208,4,0.45,2.45,9.16,-0.01,-0.01,0.0,29.85,3.0,
897,270,208,5,0.51,2.53,9.19,-0.01,-0.02,-0.0,29.8,3.0,
897,270,208,6,0.51,2.51,9.17,-0.01,-0.01,0.0,29.8,3.0,
897,270,208,7,0.44,2.45,9.02,-0.01,-0.02,0.0,29.8,3.0,
897,270,208,8,0.44,2.49,9.11,-0.01,-0.01,-0.0,29.8,3.0,
897,270,208,9,0.47,2.45,9.05,-0.01,-0.02,0.0,29.85,3.0,
897,270,208,10,0.41,2.42,9.13,-0.01,-0.01,0.0,29.85,3.0,
897,270,208,11,0.52,2.48,9.12,-0.01,-0.02,0.0,29.85,3.0,
897,270,208,12,0.47,2.47,9.13,-0.01,-0.02,0.0,29.8,3.0,
897,270,208,13,0.45,2.48,9.16,-0.01,-0.02,0.0,29.8,3.0,
897,270,208,14,0.48,2.51,9.12,-0.01,-0.01,0.0,29.8,2.0,
897,270,208,15,0.47,2.55,9.13,-0.01,-0.01,-0.0,29.89,2.0,
897,270,208,16,0.5,2.53,9.07,-0.01,-0.01,0.0,29.85,3.0,
897,270,208,17,0.52,2.46,9.08,-0.01,-0.01,0.0,29.75,3.0,
897,270,208,18,0.51,2.48,9.18,-0.01,-0.02,0.0,29.75,3.0,
897,270,208,19,0.48,2.52,9.16,-0.01,-0.02,0.0,29.85,3.0,
898,286,225,0,0.47,2.5,9.13,-0.01,-0.01,0.0,29.8,4.0,
898,286,225,1,0.49,2.55,9.13,-0.01,-0.01,-0.0,29.8,3.0,
898,286,225,2,0.48,2.5,9.14,-0.01,-0.01,0.0,29.8,2.0,
898,286,225,3,0.45,2.55,9.14,-0.01,-0.01,0.0,29.8,2.0,
898,286,225,4,0.42,2.43,9.1,-0.01,-0.01,-0.0,29.85,3.0,
898,286,225,5,0.46,2.46,9.08,-0.01,-0.01,0.0,29.85,3.0,
898,286,225,6,0.51,2.44,9.15,-0.01,-0.02,-0.0,29.75,3.0,
898,286,225,7,0.47,2.47,9.19,-0.01,-0.02,-0.0,29.8,3.0,
898,286,225,8,0.5,2.53,9.16,-0.01,-0.02,0.0,29.8,3.0,
898,286,225,9,0.52,2.49,9.11,-0.01,-0.01,0.0,29.71,3.0,
898,286,225,10,0.45,2.46,9.21,-0.01,-0.02,0.0,29.75,3.0,
898,286,225,11,0.46,2.43,9.18,-0.01,-0.01,0.0,29.75,3.0,
898,286,225,12,0.44,2.49,9.07,-0.01,-0.01,0.0,29.85,3.0,
898,286,225,13,0.52,2.53,9.14,-0.01,-0.01,0.0,29.8,3.0,
898,286,225,14,0.44,2.53,9.05,-0.01,-0.01,0.0,29.89,3.0,
898,286,225,15,0.52,2.45,9.1,-0.02,-0.01,0.0,29.89,3.0,
898,286,225,16,0.45,2.51,9.11,-0.01,-0.01,-0.0,29.85,3.0,
898,286,225,17,0.48,2.47,9.2,-0.01,-0.01,-0.0,29.85,3.0,
898,286,225,18,0.5,2.47,9.12,-0.01,-0.02,0.0,29.85,3.0,
898,286,225,19,0.47,2.56,9.06,-0.02,-0.02,0.0,29.85,3.0,
899,268,206,0,0.48,2.57,9.06,-0.01,-0.02,0.0,29.85,3.0,
899,268,206,1,0.45,2.49,9.17,-0.01,-0.02,0.0,29.89,3.0,
899,268,206,2,0.48,2.45,9.21,-0.01,-0.01,0.0,29.85,3.0,
899,268,206,3,0.46,2.5,9.14,-0.01,-0.02,-0.0,29.85,3.0,
899,268,206,4,0.44,2.47,9.17,-0.01,-0.01,-0.0,29.85,3.0,
899,268,206,5,0.47,2.54,9.21,-0.01,-0.01,-0.0,29.89,3.0,
899,268,206,6,0.49,2.45,9.15,-0.01,-0.01,0.0,29.8,3.0,
899,268,206,7,0.53,2.49,9.14,-0.01,-0.02,-0.0,29.8,3.0,
899,268,206,8,0.44,2.53,9.09,-0.01,-0.01,0.0,29.89,3.0,
899,268,206,9,0.47,2.51,9.15,-0.01,-0.01,0.0,29.8,3.0,
899,268,206,10,0.46,2.52,9.07,-0.01,-0.02,-0.0,29.85,3.0,
899,268,206,11,0.45,2.47,9.16,-0.01,-0.02,0.01,29.75,3.0,
899,268,206,12,0.4,2.51,9.11,-0.01,-0.01,-0.0,29.85,3.0,
899,268,206,13,0.5,2.47,9.15,-0.01,-0.01,-0.0,29.71,3.0,
899,268,206,14,0.45,2.46,9.17,-0.01,-0.02,0.0,29.8,3.0,
899,268,206,15,0.47,2.48,9.06,-0.01,-0.01,-0.0,29.8,3.0,
899,268,206,16,0.44,2.58,9.1,-0.01,-0.02,0.0,29.8,3.0,
899,268,206,17,0.49,2.51,9.17,-0.01,-0.01,-0.0,29.75,2.0,
899,268,206,18,0.46,2.49,9.15,-0.01,-0.01,0.0,29.75,2.0,
899,268,206,19,0.46,2.5,9.17,-0.01,-0.01,0.0,29.75,2.0,
900,336,274,0,0.51,2.54,9.17,-0.01,-0.01,-0.0,29.75,3.0,
900,336,274,1,0.49,2.51,9.19,-0.01,-0.02,0.0,29.75,3.0,
900,336,274,2,0.48,2.54,9.13,-0.01,-0.02,0.0,29.85,3.0,
900,336,274,3,0.46,2.5,9.09,-0.01,-0.01,0.0,29.75,3.0,
900,336,274,4,0.48,2.51,9.24,-0.01,-0.01,-0.0,29.89,3.0,
900,336,274,5,0.46,2.49,9.21,-0.01,-0.01,0.0,29.71,3.0,
900,336,274,6,0.5,2.49,9.14,-0.01,-0.01,-0.0,29.71,3.0,
900,336,274,7,0.45,2.5,9.19,-0.01,-0.01,-0.0,29.75,3.0,
900,336,274,8,0.47,2.49,9.19,-0.01,-0.02,-0.0,29.75,3.0,
900,336,274,9,0.48,2.49,9.14,-0.01,-0.02,0.01,29.85,3.0,
900,336,274,10,0.46,2.49,9.11,-0.01,-0.01,0.0,29.8,3.0,
900,336,274,11,0.49,2.49,9.18,-0.01,-0.01,0.0,29.8,3.0,
900,336,274,12,0.55,2.5,9.15,-0.01,-0.01,-0.0,29.8,3.0,
900,336,274,13,0.43,2.56,9.15,-0.01,-0.02,-0.0,29.89,3.0,
900,336,274,14,0.47,2.5,9.17,-0.01,-0.02,-0.0,29.85,3.0,
900,336,274,15,0.43,2.44,9.15,-0.01,-0.02,0.0,29.85,3.0,
900,336,274,16,0.46,2.54,9.14,-0.01,-0.02,-0.0,29.85,3.0,
900,336,274,17,0.4,2.51,9.17,-0.01,-0.02,-0.0,29.85,3.0,
900,336,274,18,0.49,2.46,9.17,-0.01,-0.02,-0.0,29.85,3.0,
900,336,274,19,0.45,2.53,9.06,-0.01,-0.01,-0.0,29.8,3.0,
901,279,217,0,0.51,2.46,9.13,-0.01,-0.01,0.0,29.89,3.0,
901,279,217,1,0.51,2.44,9.2,-0.01,-0.02,0.0,29.8,3.0,
901,279,217,2,0.44,2.56,9.07,-0.01,-0.02,0.0,29.8,3.0,
901,279,217,3,0.43,2.51,9.07,-0.01,-0.01,-0.0,29.89,3.0,
901,279,217,4,0.41,2.47,9.1,-0.01,-0.01,0.0,29.75,3.0,
901,279,217,5,0.5,2.46,9.1,-0.01,-0.02,-0.0,29.75,3.0,
901,279,217,6,0.48,2.48,9.12,-0.01,-0.01,0.0,29.85,3.0,
901,279,217,7,0.52,2.52,9.14,-0.01,-0.01,0.0,29.85,3.0,
901,279,217,8,0.49,2.5,9.14,-0.02,-0.01,0.0,29.71,3.0,
901,279,217,9,0.47,2.47,9.18,-0.01,-0.01,0.0,29.89,3.0,
901,279,217,10,0.46,2.52,9.15,-0.01,-0.02,0.0,29.8,3.0,
901,279,217,11,0.52,2.46,9.17,-0.01,-0.02,-0.0,29.71,3.0,
901,279,217,12,0.45,2.46,9.11,-0.01,-0.01,-0.0,29.8,3.0,
901,279,217,13,0.45,2.53,9.15,-0.01,-0.01,0.0,29.85,3.0,
901,279,217,14,0.48,2.53,9.15,-0.01,-0.01,-0.0,29.75,3.0,
901,279,217,15,0.43,2.54,9.21,-0.01,-0.01,-0.0,29.8,3.0,
901,279,217,16,0.43,2.48,9.17,-0.01,-0.02,-0.0,29.8,2.0,
901,279,217,17,0.43,2.5,9.08,-0.01,-0.02,0.0,29.8,2.0,
901,279,217,18,0.46,2.46,9.07,-0.01,-0.01,-0.0,29.85,3.0,
901,279,217,19,0.46,2.49,9.09,-0.01,-0.02,-0.0,29.75,3.0,
902,290,229,0,0.43,2.54,9.18,-0.01,-0.01,-0.0,29.89,4.0,
902,290,229,1,0.51,2.44,9.21,-0.01,-0.02,0.01,29.85,3.0,
902,290,229,2,0.47,2.49,9.14,-0.01,-0.01,-0.0,29.85,3.0,
902,290,229,3,0.45,2.5,9.12,-0.01,-0.01,-0.0,29.85,3.0,
902,290,229,4,0.43,2.54,9.05,-0.01,-0.02,-0.0,29.89,3.0,
902,290,229,5,0.51,2.51,9.18,-0.02,-0.02,0.0,29.8,2.0,
902,290,229,6,0.45,2.45,9.11,-0.01,-0.01,0.0,29.8,2.0,
902,290,229,7,0.43,2.55,9.1,-0.01,-0.02,-0.0,29.8,2.0,
902,290,229,8,0.45,2.48,9.15,-0.01,-0.02,0.0,29.85,3.0,
902,290,229,9,0.47,2.5,9.19,-0.01,-0.01,0.0,29.85,3.0,
902,290,229,10,0.52,2.51,9.17,-0.01,-0.02,-0.0,29.75,3.0,
902,290,229,11,0.49,2.53,9.11,-0.01,-0.02,-0.0,29.85,3.0,
902,290,229,12,0.47,2.52,9.06,-0.01,-0.01,-0.0,29.8,3.0,
902,290,229,13,0.46,2.55,9.08,-0.01,-0.01,0.0,29.71,3.0,
902,290,229,14,0.46,2.49,9.13,-0.01,-0.02,0.0,29.8,3.0,
902,290,229,15,0.5,2.52,9.14,-0.01,-0.01,-0.0,29.75,3.0,
902,290,229,16,0.43,2.43,9.18,-0.01,-0.02,-0.0,29.85,3.0,
902,290,229,17,0.47,2.48,9.21,-0.02,-0.01,0.0,29.75,3.0,
902,290,229,18,0.43,2.54,9.12,-0.01,-0.02,-0.0,29.85,3.0,
902,290,229,19,0.5,2.5,9.16,-0.01,-0.01,-0.0,29.85,3.0,
903,260,198,0,0.39,2.44,9.14,-0.01,-0.01,-0.0,29.85,3.0,
903,260,198,1,0.46,2.49,9.1,-0.01,-0.01,0.0,29.8,3.0,
903,260,198,2,0.51,2.51,9.15,-0.01,-0.02,-0.0,29.94,3.0,
903,260,198,3,0.47,2.5,9.11,-0.01,-0.01,-0.0,29.85,3.0,
903,260,198,4,0.45,2.48,9.18,-0.01,-0.02,0.0,29.85,3.0,
903,260,198,5,0.44,2.52,9.18,-0.01,-0.01,-0.0,29.85,3.0,
903,260,198,6,0.45,2.48,9.19,-0.01,-0.01,0.0,29.85,3.0,
903,260,198,7,0.47,2.49,9.12,-0.01,-0.01,0.0,29.8,3.0,
903,260,198,8,0.45,2.47,9.18,-0.01,-0.01,-0.0,29.8,3.0,
903,260,198,9,0.48,2.6,9.17,-0.01,-0.01,0.0,29.8,3.0,
903,260,198,10,0.46,2.56,9.21,-0.01,-0.01,-0.0,29.89,3.0,
903,260,198,11,0.54,2.52,9.16,-0.01,-0.02,0.0,29.85,3.0,
903,260,198,12,0.46,2.52,9.12,-0.01,-0.01,0.0,29.75,3.0,
903,260,198,13,0.4,2.49,9.18,-0.01,-0.01,-0.0,29.75,3.0,
903,260,198,14,0.48,2.5,9.11,-0.01,-0.01,0.0,29.75,2.0,
903,260,198,15,0.51,2.46,9.15,-0.01,-0.01,0.0,29.8,2.0,
903,260,198,16,0.48,2.51,9.1,-0.01,-0.02,-0.0,29.8,3.0,
903,260,198,17,0.49,2.5,9.19,-0.01,-0.01,-0.0,29.8,3.0,
903,260,198,18,0.53,2.46,9.2,-0.01,-0.01,0.0,29.8,3.0,
903,260,198,19,0.49,2.43,9.19,-0.01,-0.02,0.0,29.75,3.0,
904,272,210,0,0.45,2.53,9.21,-0.01,-0.01,-0.0,29.85,3.0,
904,272,210,1,0.53,2.52,9.12,-0.01,-0.01,0.0,29.85,3.0,
904,272,210,2,0.48,2.45,9.21,-0.01,-0.02,-0.0,29.8,3.0,
904,272,210,3,0.42,2.46,9.18,-0.01,-0.02,-0.0,29.8,3.0,
904,272,210,4,0.49,2.48,9.11,-0.01,-0.01,-0.0,29.89,3.0,
904,272,210,5,0.45,2.48,9.14,-0.01,-0.01,0.0,29.85,3.0,
904,272,210,6,0.45,2.51,9.11,-0.01,-0.02,-0.0,29.75,3.0,
904,272,210,7,0.52,2.54,9.14,-0.01,-0.01,-0.0,29.75,3.0,
904,272,210,8,0.45,2.47,9.16,-0.01,-0.01,0.0,29.85,3.0,
904,272,210,9,0.45,2.48,9.16,-0.01,-0.02,-0.0,29.85,3.0,
904,272,210,10,0.46,2.48,9.15,-0.01,-0.01,-0.0,29.85,2.0,
904,272,210,11,0.48,2.46,9.12,-0.01,-0.01,0.0,29.8,2.0,
904,272,210,12,0.48,2.5,9.21,-0.01,-0.01,0.0,29.8,3.0,
904,272,210,13,0.45,2.49,9.11,-0.01,-0.01,-0.0,29.89,3.0,
904,272,210,14,0.44,2.45,9.11,-0.01,-0.02,0.0,29.85,3.0,
904,272,210,15,0.41,2.52,9.09,-0.01,-0.02,-0.0,29.85,3.0,
904,272,210,16,0.48,2.57,9.16,-0.01,-0.01,0.0,29.75,3.0,
904,272,210,17,0.43,2.53,9.09,-0.01,-0.01,0.0,29.85,3.0,
904,272,210,18,0.45,2.48,9.21,-0.01,-0.02,0.0,29.8,3.0,
904,272,210,19,0.44,2.52,9.04,-0.01,-0.01,-0.0,29.8,3.0,
905,281,220,0,0.47,2.49,9.16,-0.01,-0.01,0.0,29.75,3.0,
905,281,220,1,0.45,2.5,9.21,-0.01,-0.02,0.0,29.8,3.0,
905,281,220,2,0.47,2.45,9.08,-0.02,-0.01,-0.0,29.8,3.0,
905,281,220,3,0.48,2.44,9.23,-0.01,-0.01,0.0,29.8,3.0,
905,281,220,4,0.51,2.46,9.12,-0.01,-0.02,-0.0,29.85,3.0,
905,281,220,5,0.46,2.45,9.16,-0.01,-0.01,-0.0,29.75,3.0,
905,281,220,6,0.51,2.49,9.21,-0.02,-0.01,0.0,29.75,2.0,
905,281,220,7,0.44,2.53,9.19,-0.01,-0.01,0.0,29.75,2.0,
905,281,220,8,0.47,2.52,9.18,-0.01,-0.02,0.0,29.8,3.0,
905,281,220,9,0.47,2.46,9.09,-0.01,-0.01,-0.0,29.8,3.0,
905,281,220,10,0.56,2.5,9.09,-0.01,-0.02,-0.0,29.89,3.0,
905,281,220,11,0.44,2.49,9.15,-0.01,-0.02,0.0,29.85,3.0,
905,281,220,12,0.45,2.48,9.11,-0.01,-0.01,-0.0,29.85,3.0,
905,281,220,13,0.47,2.43,9.12,-0.01,-0.01,0.0,29.85,3.0,
905,281,220,14,0.44,2.48,9.17,-0.01,-0.02,0.0,29.75,3.0,
905,281,220,15,0.5,2.45,9.16,-0.01,-0.02,-0.0,29.71,3.0,
905,281,220,16,0.47,2.5,9.08,-0.01,-0.01,0.0,29.8,3.0,
905,281,220,17,0.43,2.5,9.11,-0.01,-0.02,0.0,29.85,3.0,
905,281,220,18,0.51,2.47,9.06,-0.01,-0.02,0.0,29.85,3.0,
905,281,220,19,0.46,2.51,9.14,-0.01,-0.01,-0.0,29.75,3.0,
906,290,228,0,0.44,2.48,9.16,-0.01,-0.02,-0.0,29.75,3.0,
906,290,228,1,0.47,2.52,9.13,-0.01,-0.01,0.0,29.8,3.0,
906,290,228,2,0.47,2.49,9.13,-0.01,-0.02,-0.0,29.85,3.0,
906,290,228,3,0.42,2.44,9.28,-0.01,-0.01,-0.0,29.85,3.0,
906,290,228,4,0.45,2.47,9.2,-0.01,-0.02,-0.0,29.75,3.0,
906,290,228,5,0.49,2.47,9.06,-0.01,-0.01,0.0,29.85,3.0,
906,290,228,6,0.44,2.48,9.17,-0.01,-0.01,0.0,29.85,3.0,
906,290,228,7,0.46,2.49,9.17,-0.01,-0.02,-0.0,29.89,3.0,
906,290,228,8,0.45,2.49,9.16,-0.01,-0.01,0.0,29.71,3.0,
906,290,228,9,0.46,2.48,9.13,-0.01,-0.01,0.0,29.89,3.0,
906,290,228,10,0.48,2.49,9.17,-0.01,-0.02,-0.0,29.75,3.0,
906,290,228,11,0.46,2.48,9.19,-0.01,-0.01,0.0,29.85,2.0,
906,290,228,12,0.46,2.49,9.16,-0.01,-0.01,-0.0,29.85,2.0,
906,290,228,13,0.44,2.48,9.14,-0.01,-0.02,0.0,29.75,2.0,
906,290,228,14,0.47,2.44,9.14,-0.01,-0.01,0.0,29.85,3.0,
906,290,228,15,0.47,2.49,9.19,-0.01,-0.01,-0.0,29.8,3.0,
906,290,228,16,0.49,2.52,9.09,-0.01,-0.01,0.0,29.8,3.0,
906,290,228,17,0.49,2.51,9.14,-0.01,-0.01,0.0,29.89,3.0,
906,290,228,18,0.46,2.43,9.17,-0.01,-0.01,0.0,29.71,3.0,
906,290,228,19,0.48,2.51,9.1,-0.01,-0.01,0.0,29.85,3.0,
907,281,220,0,0.43,2.48,9.14,-0.02,-0.01,0.0,29.71,4.0,
907,281,220,1,0.43,2.42,9.17,-0.01,-0.01,-0.0,29.85,3.0,
907,281,220,2,0.49,2.51,9.11,-0.01,-0.01,0.0,29.8,3.0,
907,281,220,3,0.49,2.46,9.15,-0.01,-0.01,-0.0,29.8,3.0,
907,281,220,4,0.44,2.51,9.14,-0.01,-0.02,0.0,29.8,2.0,
907,281,220,5,0.4,2.45,9.12,-0.01,-0.02,-0.0,29.75,2.0,
907,281,220,6,0.45,2.47,9.16,-0.01,-0.02,0.0,29.85,2.0,
907,281,220,7,0.44,2.49,9.16,-0.01,-0.02,0.0,29.85,3.0,
907,281,220,8,0.46,2.45,9.12,-0.01,-0.02,-0.0,29.85,3.0,
907,281,220,9,0.49,2.49,9.13,-0.01,-0.01,0.0,29.89,3.0,
907,281,220,10,0.51,2.49,9.16,-0.01,-0.01,0.0,29.8,3.0,
907,281,220,11,0.46,2.5,9.14,-0.01,-0.02,0.0,29.8,3.0,
907,281,220,12,0.5,2.44,9.08,-0.01,-0.01,0.0,29.85,3.0,
907,281,220,13,0.45,2.5,9.2,-0.01,-0.01,-0.0,29.85,3.0,
907,281,220,14,0.47,2.45,9.18,-0.01,-0.01,0.0,29.85,3.0,
907,281,220,15,0.49,2.48,9.2,-0.01,-0.01,0.0,29.75,3.0,
907,281,220,16,0.52,2.54,9.1,-0.01,-0.01,0.0,29.8,3.0,
907,281,220,17,0.45,2.47,9.17,-0.01,-0.01,-0.0,29.8,3.0,
907,281,220,18,0.45,2.55,9.19,-0.01,-0.01,0.0,29.75,3.0,
907,281,220,19,0.45,2.49,9.12,-0.01,-0.01,-0.0,29.85,3.0,
908,283,222,0,0.49,2.47,9.28,-0.01,-0.02,0.0,29.75,4.0,
908,283,222,1,0.49,2.51,9.09,-0.01,-0.01,0.0,29.8,3.0,
908,283,222,2,0.47,2.52,9.13,-0.01,-0.01,-0.0,29.85,2.0,
908,283,222,3,0.45,2.45,9.06,-0.01,-0.02,-0.0,29.85,2.0,
908,283,222,4,0.5,2.5,9.11,-0.01,-0.01,-0.0,29.85,2.0,
908,283,222,5,0.49,2.47,9.09,-0.01,-0.01,-0.0,29.94,3.0,
908,283,222,6,0.44,2.51,9.12,-0.01,-0.01,0.0,29.75,3.0,
908,283,222,7,0.48,2.4,9.1,-0.01,-0.01,0.0,29.85,3.0,
908,283,222,8,0.47,2.48,9.16,-0.01,-0.01,-0.0,29.89,3.0,
908,283,222,9,0.42,2.48,9.06,-0.01,-0.01,0.0,29.89,3.0,
908,283,222,10,0.51,2.48,9.19,-0.01,-0.02,0.0,29.8,3.0,
908,283,222,11,0.44,2.47,9.14,-0.01,-0.02,0.0,29.85,3.0,
908,283,222,12,0.5,2.51,9.16,-0.01,-0.01,-0.0,29.85,3.0,
908,283,222,13,0.47,2.47,9.2,-0.01,-0.01,-0.0,29.75,3.0,
908,283,222,14,0.43,2.47,9.12,-0.01,-0.01,0.0,29.85,3.0,
908,283,222,15,0.48,2.49,9.13,-0.01,-0.02,-0.0,29.8,3.0,
908,283,222,16,0.48,2.5,9.12,-0.01,-0.01,0.0,29.8,3.0,
908,283,222,17,0.5,2.52,9.1,-0.01,-0.02,-0.0,29.71,3.0,
908,283,222,18,0.52,2.47,9.17,-0.01,-0.01,0.0,29.8,3.0,
908,283,222,19,0.44,2.45,9.09,-0.01,-0.02,0.0,29.8,3.0,
909,283,216,0,0.4,2.59,9.12,-0.02,-0.02,0.0,29.75,3.0,
909,283,216,1,0.45,2.55,9.09,-0.01,-0.02,-0.0,29.8,3.0,
909,283,216,2,0.47,2.49,9.14,-0.01,-0.01,0.0,29.8,3.0,
909,283,216,3,0.49,2.51,9.19,-0.01,-0.02,-0.0,29.8,3.0,
909,283,216,4,0.45,2.6,9.12,-0.01,-0.02,-0.0,29.8,3.0,
909,283,216,5,0.49,2.43,9.11,-0.01,-0.01,-0.0,29.71,3.0,
909,283,216,6,0.47,2.48,9.07,-0.01,-0.02,0.0,29.8,3.0,
909,283,216,7,0.47,2.45,9.14,-0.01,-0.01,0.0,29.75,3.0,
909,283,216,8,0.46,2.52,9.09,-0.01,-0.02,0.0,29.85,3.0,
909,283,216,9,0.51,2.49,9.22,-0.01,-0.01,0.0,29.75,3.0,
909,283,216,10,0.45,2.54,9.16,-0.01,-0.01,0.0,29.89,2.0,
909,283,216,11,0.47,2.52,9.11,-0.01,-0.01,-0.0,29.8,2.0,
909,283,216,12,0.45,2.49,9.08,-0.01,-0.02,0.0,29.8,2.0,
909,283,216,13,0.5,2.51,9.11,-0.01,-0.02,-0.0,29.8,3.0,
909,283,216,14,0.47,2.46,9.09,-0.01,-0.01,0.0,29.8,3.0,
909,283,216,15,0.5,2.49,9.12,-0.02,-0.01,-0.0,29.85,3.0,
909,283,216,16,0.48,2.44,9.1,-0.01,-0.02,0.0,29.75,3.0,
909,283,216,17,0.47,2.48,9.18,-0.01,-0.01,-0.0,29.85,3.0,
909,283,216,18,0.54,2.49,9.23,-0.01,-0.02,0.0,29.8,3.0,
909,283,216,19,0.46,2.49,9.12,-0.01,-0.01,0.0,29.71,3.0,
910,958,897,0,0.44,2.52,9.13,-0.01,-0.01,-0.0,29.8,3.0,
910,958,897,1,0.46,2.48,9.05,-0.01,-0.02,0.0,29.75,3.0,
910,958,897,2,0.47,2.55,9.02,-0.01,-0.01,0.0,29.85,3.0,
910,958,897,3,0.46,2.48,9.18,-0.01,-0.01,-0.0,29.89,3.0,
910,958,897,4,0.41,2.54,9.15,-0.01,-0.01,0.0,29.89,3.0,
910,958,897,5,0.45,2.51,9.19,-0.01,-0.02,0.0,29.8,3.0,
910,958,897,6,0.46,2.49,9.15,-0.01,-0.02,0.0,29.85,3.0,
910,958,897,7,0.51,2.5,9.14,-0.01,-0.01,-0.0,29.75,3.0,
910,958,897,8,0.45,2.47,9.17,-0.01,-0.01,-0.0,29.75,3.0,
910,958,897,9,0.49,2.48,9.15,-0.01,-0.01,-0.0,29.85,3.0,
910,958,897,10,0.44,2.5,9.11,-0.01,-0.01,0.0,29.8,3.0,
910,958,897,11,0.45,2.53,9.16,-0.01,-0.01,0.0,29.8,3.0,
910,958,897,12,0.52,2.51,9.11,-0.01,-0.01,0.0,29.8,3.0,
910,958,897,13,0.48,2.51,9.13,-0.01,-0.02,0.0,29.71,3.0,
910,958,897,14,0.45,2.46,9.19,-0.01,-0.01,-0.0,29.75,3.0,
910,958,897,15,0.47,2.51,9.23,-0.01,-0.01,0.0,29.85,3.0,
910,958,897,16,0.56,2.49,9.07,-0.01,-0.01,0.0,29.85,3.0,
910,958,897,17,0.44,2.5,9.15,-0.01,-0.01,0.01,29.89,3.0,
910,958,897,18,0.46,2.5,9.16,-0.01,-0.01,0.0,29.8,3.0,
910,958,897,19,0.45,2.47,9.16,-0.01,-0.01,0.0,29.75,2.0,
911,392,331,0,0.41,2.46,9.14,-0.01,-0.01,0.0,29.85,3.0,
911,392,331,1,0.47,2.4,9.11,-0.01,-0.01,-0.0,29.85,3.0,
911,392,331,2,0.46,2.47,9.11,-0.01,-0.02,0.0,29.75,3.0,
911,392,331,3,0.43,2.52,9.14,-0.01,-0.01,0.0,29.75,3.0,
911,392,331,4,0.47,2.5,9.14,-0.01,-0.01,0.0,29.8,3.0,
911,392,331,5,0.49,2.52,9.16,-0.01,-0.02,-0.0,29.89,3.0,
911,392,331,6,0.47,2.52,9.11,-0.01,-0.01,0.01,29.75,3.0,
911,392,331,7,0.51,2.54,9.18,-0.01,-0.01,0.0,29.75,3.0,
911,392,331,8,0.47,2.46,9.14,-0.01,-0.01,0.0,29.75,3.0,
911,392,331,9,0.5,2.5,9.12,-0.01,-0.01,0.0,29.75,3.0,
911,392,331,10,0.49,2.51,9.08,-0.01,-0.02,0.0,29.8,3.0,
911,392,331,11,0.55,2.49,9.17,-0.01,-0.01,0.0,29.71,3.0,
911,392,331,12,0.44,2.53,9.14,-0.01,-0.01,-0.0,29.8,3.0,
911,392,331,13,0.55,2.5,9.17,-0.01,-0.01,-0.0,29.89,3.0,
911,392,331,14,0.46,2.49,9.1,-0.01,-0.01,0.0,29.75,3.0,
911,392,331,15,0.45,2.5,9.16,-0.01,-0.01,-0.0,29.75,3.0,
911,392,331,16,0.45,2.49,9.09,-0.01,-0.01,0.0,29.75,3.0,
911,392,331,17,0.47,2.51,9.17,-0.01,-0.01,0.0,29.85,3.0,
911,392,331,18,0.5,2.54,9.15,-0.01,-0.01,0.0,29.89,3.0,
911,392,331,19,0.45,2.5,9.1,-0.01,-0.02,0.0,29.8,3.0,
912,270,209,0,0.49,2.47,9.12,-0.01,-0.01,0.0,29.85,3.0,
912,270,209,1,0.44,2.5,9.14,-0.01,-0.01,0.0,29.8,3.0,
912,270,209,2,0.47,2.43,9.15,-0.01,-0.02,0.0,29.85,3.0,
912,270,209,3,0.44,2.51,9.08,-0.01,-0.02,0.0,29.66,3.0,
912,270,209,4,0.44,2.49,9.19,-0.01,-0.01,-0.0,29.85,3.0,
912,270,209,5,0.48,2.52,9.13,-0.01,-0.01,-0.0,29.8,3.0,
912,270,209,6,0.47,2.44,9.11,-0.01,-0.01,0.0,29.8,3.0,
912,270,209,7,0.52,2.46,9.16,-0.01,-0.02,0.0,29.89,3.0,
912,270,209,8,0.42,2.47,9.05,-0.01,-0.01,0.0,29.8,3.0,
912,270,209,9,0.49,2.47,9.11,-0.01,-0.01,-0.0,29.85,3.0,
912,270,209,10,0.47,2.52,9.14,-0.01,-0.01,0.0,29.66,3.0,
912,270,209,11,0.45,2.47,9.13,-0.01,-0.01,0.0,29.75,3.0,
912,270,209,12,0.51,2.48,9.1,-0.01,-0.02,0.0,29.85,3.0,
912,270,209,13,0.49,2.49,9.19,-0.01,-0.01,-0.0,29.8,3.0,
912,270,209,14,0.5,2.53,9.11,-0.01,-0.01,0.0,29.89,3.0,
912,270,209,15,0.47,2.47,9.11,-0.01,-0.02,0.0,29.71,3.0,
912,270,209,16,0.44,2.45,9.11,-0.01,-0.01,0.0,29.75,3.0,
912,270,209,17,0.47,2.57,9.07,-0.02,-0.02,0.0,29.75,3.0,
912,270,209,18,0.45,2.5,9.18,-0.01,-0.02,0.0,29.75,2.0,
912,270,209,19,0.45,2.45,9.11,-0.01,-0.01,0.0,29.71,2.0,
913,283,222,0,0.46,2.48,9.12,-0.01,-0.01,0.0,29.75,4.0,
913,283,222,1,0.46,2.54,9.08,-0.01,-0.02,0.0,29.75,3.0,
913,283,222,2,0.48,2.5,9.13,-0.01,-0.01,0.0,29.75,3.0,
913,283,222,3,0.46,2.45,9.12,-0.01,-0.02,-0.0,29.75,2.0,
913,283,222,4,0.45,2.51,9.09,-0.01,-0.01,0.0,29.8,2.0,
913,283,222,5,0.48,2.53,9.19,-0.01,-0.02,0.0,29.8,3.0,
913,283,222,6,0.46,2.48,9.18,-0.01,-0.01,-0.0,29.8,3.0,
913,283,222,7,0.49,2.49,9.14,-0.01,-0.02,-0.0,29.75,3.0,
913,283,222,8,0.42,2.51,9.11,-0.01,-0.01,0.0,29.75,3.0,
913,283,222,9,0.47,2.52,9.13,-0.01,-0.01,0.0,29.85,3.0,
913,283,222,10,0.49,2.48,9.14,-0.01,-0.01,-0.0,29.71,3.0,
913,283,222,11,0.44,2.5,9.14,-0.01,-0.01,0.0,29.8,3.0,
913,283,222,12,0.54,2.52,9.16,-0.01,-0.01,-0.0,29.89,3.0,
913,283,222,13,0.45,2.49,9.2,-0.01,-0.01,0.0,29.85,3.0,
913,283,222,14,0.41,2.52,9.14,-0.01,-0.01,0.0,29.75,3.0,
913,283,222,15,0.49,2.5,9.17,-0.01,-0.01,-0.0,29.66,3.0,
913,283,222,16,0.5,2.49,9.11,-0.01,-0.01,0.0,29.8,3.0,
913,283,222,17,0.46,2.49,9.09,-0.01,-0.01,-0.0,29.8,3.0,
913,283,222,18,0.46,2.47,9.08,-0.01,-0.01,-0.0,29.66,3.0,
913,283,222,19,0.46,2.55,9.2,-0.01,-0.02,0.0,29.75,3.0,
914,294,232,0,0.49,2.47,9.13,-0.01,-0.01,0.0,29.75,4.0,
914,294,232,1,0.46,2.46,9.18,-0.01,-0.01,0.0,29.71,3.0,
914,294,232,2,0.45,2.49,9.1,-0.01,-0.01,0.0,29.8,3.0,
914,294,232,3,0.41,2.48,9.2,-0.02,-0.01,-0.0,29.85,3.0,
914,294,232,4,0.42,2.5,9.02,-0.01,-0.02,-0.0,29.66,3.0,
914,294,232,5,0.45,2.49,9.16,-0.01,-0.02,0.0,29.85,2.0,
914,294,232,6,0.44,2.49,9.16,-0.01,-0.01,0.0,29.75,2.0,
914,294,232,7,0.47,2.49,9.13,-0.01,-0.02,-0.0,29.8,3.0,
914,294,232,8,0.44,2.48,9.12,-0.01,-0.01,-0.0,29.8,3.0,
914,294,232,9,0.42,2.51,9.14,-0.01,-0.02,0.0,29.8,3.0,
914,294,232,10,0.47,2.48,9.22,-0.01,-0.01,-0.0,29.75,3.0,
914,294,232,11,0.5,2.45,9.13,-0.01,-0.01,0.0,29.75,3.0,
914,294,232,12,0.45,2.48,9.13,-0.01,-0.02,-0.0,29.75,3.0,
914,294,232,13,0.53,2.53,9.14,-0.01,-0.02,0.0,29.66,3.0,
914,294,232,14,0.47,2.5,9.14,-0.01,-0.01,0.0,29.75,3.0,
914,294,232,15,0.5,2.51,9.11,-0.01,-0.01,0.0,29.8,3.0,
914,294,232,16,0.48,2.48,9.14,-0.01,-0.02,-0.0,29.8,3.0,
914,294,232,17,0.47,2.5,9.16,-0.01,-0.01,0.0,29.8,3.0,
914,294,232,18,0.49,2.44,9.17,-0.01,-0.01,-0.0,29.71,3.0,
914,294,232,19,0.42,2.53,9.12,-0.01,-0.01,0.0,29.75,3.0,
915,280,218,0,0.4,2.5,9.13,-0.01,-0.01,0.0,29.75,3.0,
915,280,218,1,0.47,2.48,9.17,-0.01,-0.01,0.0,29.85,3.0,
915,280,218,2,0.47,2.51,9.15,-0.01,-0.01,-0.0,29.75,3.0,
915,280,218,3,0.45,2.46,9.13,-0.01,-0.02,0.0,29.75,3.0,
915,280,218,4,0.45,2.47,9.16,-0.01,-0.02,0.0,29.75,3.0,
915,280,218,5,0.47,2.49,9.14,-0.01,-0.02,-0.0,29.75,3.0,
915,280,218,6,0.52,2.52,9.06,-0.01,-0.01,0.0,29.75,3.0,
915,280,218,7,0.45,2.51,9.19,-0.01,-0.02,-0.0,29.8,3.0,
915,280,218,8,0.46,2.43,9.18,-0.01,-0.02,-0.0,29.8,3.0,
915,280,218,9,0.48,2.42,9.18,-0.01,-0.01,-0.0,29.8,3.0,
915,280,218,10,0.5,2.46,9.1,-0.01,-0.01,-0.0,29.85,3.0,
915,280,218,11,0.48,2.45,9.13,-0.01,-0.01,0.0,29.75,3.0,
915,280,218,12,0.54,2.56,9.17,-0.01,-0.02,-0.0,29.85,3.0,
915,280,218,13,0.4,2.47,9.19,-0.01,-0.01,-0.0,29.66,3.0,
915,280,218,14,0.48,2.57,9.17,-0.01,-0.02,0.0,29.75,3.0,
915,280,218,15,0.4,2.5,9.15,-0.01,-0.01,0.0,29.75,3.0,
915,280,218,16,0.5,2.47,9.09,-0.01,-0.01,-0.0,29.75,3.0,
915,280,218,17,0.48,2.5,9.1,-0.01,-0.02,0.0,29.71,3.0,
915,280,218,18,0.48,2.56,9.19,-0.01,-0.01,0.0,29.8,3.0,
915,280,218,19,0.45,2.46,9.15,-0.01,-0.01,-0.0,29.71,2.0,
916,260,198,0,0.48,2.52,9.09,-0.01,-0.01,0.0,29.8,3.0,
916,260,198,1,0.47,2.56,9.1,-0.01,-0.01,-0.0,29.85,3.0,
916,260,198,2,0.45,2.55,9.18,-0.01,-0.01,0.0,29.66,3.0,
916,260,198,3,0.47,2.49,9.1,-0.01,-0.01,-0.0,29.75,3.0,
916,260,198,4,0.45,2.42,9.14,-0.01,-0.01,-0.0,29.8,3.0,
916,260,198,5,0.49,2.49,9.16,-0.01,-0.01,-0.0,29.8,3.0,
916,260,198,6,0.44,2.4,9.15,-0.01,-0.01,0.0,29.8,3.0,
916,260,198,7,0.5,2.5,9.12,-0.01,-0.02,-0.0,29.71,3.0,
916,260,198,8,0.38,2.55,9.1,-0.01,-0.01,-0.0,29.8,3.0,
916,260,198,9,0.49,2.5,9.23,-0.01,-0.02,-0.0,29.8,3.0,
916,260,198,10,0.44,2.53,9.15,-0.01,-0.01,0.0,29.75,3.0,
916,260,198,11,0.5,2.54,9.11,-0.01,-0.01,-0.0,29.75,3.0,
916,260,198,12,0.45,2.48,9.12,-0.01,-0.02,-0.0,29.75,3.0,
916,260,198,13,0.46,2.43,9.15,-0.01,-0.01,-0.0,29.8,3.0,
916,260,198,14,0.46,2.5,9.15,-0.01,-0.01,0.0,29.71,3.0,
916,260,198,15,0.42,2.47,9.23,-0.01,-0.02,0.0,29.8,2.0,
916,260,198,16,0.51,2.5,9.17,-0.01,-0.01,0.0,29.8,2.0,
916,260,198,17,0.44,2.49,9.14,-0.01,-0.01,-0.0,29.85,3.0,
916,260,198,18,0.47,2.47,9.17,-0.01,-0.01,-0.0,29.75,3.0,
916,260,198,19,0.4,2.49,9.18,-0.01,-0.01,0.0,29.75,3.0,
917,260,198,0,0.44,2.51,9.14,-0.01,-0.02,0.0,29.75,3.0,
917,260,198,1,0.45,2.46,9.13,-0.01,-0.01,-0.0,29.8,3.0,
917,260,198,2,0.5,2.5,9.17,-0.01,-0.02,0.0,29.89,3.0,
917,260,198,3,0.43,2.56,9.15,-0.01,-0.01,0.0,29.75,3.0,
917,260,198,4,0.44,2.48,9.24,-0.01,-0.02,0.0,29.75,3.0,
917,260,198,5,0.5,2.49,9.17,-0.01,-0.01,0.0,29.85,3.0,
917,260,198,6,0.49,2.52,9.16,-0.01,-0.01,-0.0,29.75,3.0,
917,260,198,7,0.53,2.49,9.02,-0.01,-0.01,0.0,29.75,3.0,
917,260,198,8,0.47,2.47,9.04,-0.01,-0.01,0.0,29.75,3.0,
917,260,198,9,0.46,2.49,9.13,-0.01,-0.01,0.0,29.8,3.0,
917,260,198,10,0.52,2.56,9.07,-0.01,-0.02,0.0,29.71,3.0,
917,260,198,11,0.4,2.5,9.14,-0.01,-0.01,0.0,29.71,3.0,
917,260,198,12,0.45,2.48,9.14,-0.01,-0.01,0.0,29.75,3.0,
917,260,198,13,0.45,2.46,9.08,-0.01,-0.01,-0.0,29.75,3.0,
917,260,198,14,0.48,2.54,9.1,-0.01,-0.02,0.0,29.75,3.0,
917,260,198,15,0.44,2.48,9.18,-0.01,-0.01,0.0,29.75,3.0,
917,260,198,16,0.51,2.45,9.22,-0.01,-0.01,0.0,29.75,3.0,
917,260,198,17,0.47,2.42,9.16,-0.01,-0.01,-0.0,29.75,3.0,
917,260,198,18,0.49,2.49,9.11,-0.01,-0.02,-0.0,29.85,3.0,
917,260,198,19,0.49,2.49,9.13,-0.01,-0.01,0.0,29.75,3.0,
918,262,201,0,0.46,2.58,9.06,-0.01,-0.02,0.0,29.75,3.0,
918,262,201,1,0.47,2.51,9.17,-0.01,-0.01,0.0,29.75,3.0,
918,262,201,2,0.42,2.5,9.16,-0.01,-0.02,-0.0,29.75,3.0,
918,262,201,3,0.48,2.48,9.16,-0.01,-0.01,-0.0,29.75,3.0,
918,262,201,4,0.45,2.52,9.11,-0.01,-0.02,0.0,29.66,3.0,
918,262,201,5,0.44,2.53,9.2,-0.01,-0.01,0.0,29.75,3.0,
918,262,201,6,0.46,2.51,9.15,-0.01,-0.01,0.0,29.71,3.0,
918,262,201,7,0.46,2.48,9.15,-0.01,-0.01,0.0,29.71,3.0,
918,262,201,8,0.51,2.45,9.17,-0.01,-0.01,0.01,29.8,3.0,
918,262,201,9,0.55,2.46,9.08,-0.01,-0.02,0.0,29.71,3.0,
918,262,201,10,0.44,2.49,9.18,-0.01,-0.01,0.0,29.75,3.0,
918,262,201,11,0.48,2.54,9.11,-0.01,-0.02,0.0,29.75,3.0,
918,262,201,12,0.43,2.5,9.17,-0.01,-0.01,-0.0,29.75,3.0,
918,262,201,13,0.53,2.51,9.18,-0.01,-0.01,-0.0,29.75,3.0,
918,262,201,14,0.45,2.47,9.21,-0.01,-0.01,0.0,29.75,3.0,
918,262,201,15,0.45,2.54,9.09,-0.01,-0.02,-0.0,29.75,3.0,
918,262,201,16,0.5,2.48,9.16,-0.01,-0.01,0.0,29.75,3.0,
918,262,201,17,0.45,2.49,9.13,-0.01,-0.02,-0.0,29.8,3.0,
918,262,201,18,0.52,2.51,9.07,-0.01,-0.01,-0.0,29.71,3.0,
918,262,201,19,0.48,2.46,9.13,-0.01,-0.01,-0.0,29.8,3.0,
919,270,207,0,0.5,2.5,9.14,-0.01,-0.01,0.0,29.71,3.0,
919,270,207,1,0.46,2.49,9.15,-0.01,-0.02,-0.0,29.8,3.0,
919,270,207,2,0.5,2.46,9.15,-0.01,-0.02,0.0,29.71,3.0,
919,270,207,3,0.46,2.5,9.12,-0.01,-0.01,0.0,29.71,3.0,
919,270,207,4,0.46,2.56,9.2,-0.01,-0.01,-0.0,29.75,3.0,
919,270,207,5,0.48,2.47,9.1,-0.01,-0.01,0.0,29.85,3.0,
919,270,207,6,0.44,2.52,9.14,-0.01,-0.02,0.0,29.66,3.0,
919,270,207,7,0.49,2.5,9.07,-0.01,-0.01,0.0,29.66,3.0,
919,270,207,8,0.45,2.55,9.17,-0.01,-0.02,-0.0,29.75,3.0,
919,270,207,9,0.44,2.47,9.11,-0.01,-0.01,-0.0,29.75,3.0,
919,270,207,10,0.46,2.49,9.15,-0.01,-0.01,-0.0,29.8,3.0,
919,270,207,11,0.5,2.47,9.1,-0.01,-0.02,-0.0,29.71,2.0,
919,270,207,12,0.47,2.48,9.17,-0.01,-0.01,0.0,29.71,2.0,
919,270,207,13,0.43,2.49,9.2,-0.01,-0.01,0.0,29.66,3.0,
919,270,207,14,0.52,2.51,9.24,-0.02,-0.02,0.0,29.66,3.0,
919,270,207,15,0.51,2.5,9.11,-0.01,-0.02,-0.0,29.75,3.0,
919,270,207,16,0.51,2.53,9.07,-0.01,-0.01,0.01,29.71,3.0,
919,270,207,17,0.4,2.53,9.18,-0.01,-0.01,-0.0,29.71,3.0,
919,270,207,18,0.45,2.52,9.12,-0.01,-0.01,0.0,29.8,3.0,
919,270,207,19,0.47,2.49,9.19,-0.01,-0.01,0.0,29.85,3.0,
920,273,212,0,0.51,2.44,9.11,-0.01,-0.01,0.0,29.75,3.0,
920,273,212,1,0.51,2.49,9.2,-0.01,-0.02,0.0,29.75,3.0,
920,273,212,2,0.5,2.5,9.18,-0.01,-0.01,0.0,29.85,3.0,
920,273,212,3,0.43,2.51,9.15,-0.01,-0.01,0.0,29.85,3.0,
920,273,212,4,0.49,2.54,9.16,-0.01,-0.01,-0.0,29.75,3.0,
920,273,212,5,0.43,2.53,9.11,-0.01,-0.02,-0.0,29.89,3.0,
920,273,212,6,0.47,2.53,9.19,-0.01,-0.01,0.01,29.71,3.0,
920,273,212,7,0.47,2.44,9.15,-0.01,-0.02,-0.0,29.8,3.0,
920,273,212,8,0.47,2.49,9.14,-0.01,-0.01,0.0,29.66,3.0,
920,273,212,9,0.44,2.48,9.18,-0.01,-0.01,-0.0,29.66,3.0,
920,273,212,10,0.48,2.47,9.07,-0.01,-0.01,0.0,29.75,3.0,
920,273,212,11,0.42,2.49,9.18,-0.01,-0.02,0.0,29.75,3.0,
920,273,212,12,0.43,2.48,9.12,-0.01,-0.01,-0.0,29.8,3.0,
920,273,212,13,0.48,2.52,9.07,-0.01,-0.01,0.0,29.71,3.0,
920,273,212,14,0.47,2.49,9.18,-0.01,-0.02,0.0,29.61,3.0,
920,273,212,15,0.49,2.44,9.17,-0.01,-0.01,0.0,29.8,3.0,
920,273,212,16,0.4,2.45,9.19,-0.01,-0.01,0.0,29.75,3.0,
920,273,212,17,0.52,2.51,9.12,-0.01,-0.02,0.0,29.66,3.0,
920,273,212,18,0.46,2.5,9.13,-0.02,-0.01,0.0,29.85,3.0,
920,273,212,19,0.44,2.41,9.14,-0.01,-0.01,-0.0,29.71,2.0,
921,270,208,0,0.47,2.51,9.08,-0.02,-0.01,-0.0,29.75,3.0,
921,270,208,1,0.51,2.43,9.15,-0.01,-0.02,0.0,29.75,3.0,
921,270,208,2,0.49,2.51,9.12,-0.01,-0.01,0.0,29.75,3.0,
921,270,208,3,0.4,2.46,9.11,-0.01,-0.01,0.0,29.75,3.0,
921,270,208,4,0.48,2.48,9.07,-0.01,-0.01,0.0,29.75,3.0,
921,270,208,5,0.5,2.46,9.19,-0.01,-0.01,0.0,29.8,3.0,
921,270,208,6,0.43,2.44,9.11,-0.01,-0.01,0.0,29.8,2.0,
921,270,208,7,0.46,2.53,9.24,-0.01,-0.01,-0.0,29.71,2.0,
921,270,208,8,0.45,2.49,9.17,-0.01,-0.02,0.0,29.75,3.0,
921,270,208,9,0.52,2.44,9.15,-0.01,-0.01,-0.0,29.66,3.0,
921,270,208,10,0.46,2.49,9.15,-0.01,-0.01,0.0,29.75,3.0,
921,270,208,11,0.46,2.48,9.12,-0.01,-0.01,-0.0,29.8,3.0,
921,270,208,12,0.49,2.49,9.2,-0.01,-0.02,0.0,29.71,3.0,
921,270,208,13,0.49,2.51,9.14,-0.01,-0.02,0.0,29.71,3.0,
921,270,208,14,0.45,2.54,9.1,-0.01,-0.01,-0.0,29.85,3.0,
921,270,208,15,0.47,2.49,9.1,-0.01,-0.01,0.0,29.75,3.0,
921,270,208,16,0.5,2.52,9.12,-0.01,-0.01,-0.0,29.8,3.0,
921,270,208,17,0.39,2.48,9.15,-0.01,-0.01,0.0,29.71,3.0,
921,270,208,18,0.45,2.52,9.11,-0.01,-0.01,0.0,29.71,3.0,
921,270,208,19,0.43,2.56,9.12,-0.01,-0.01,0.0,29.8,3.0,
922,271,209,0,0.43,2.48,9.21,-0.01,-0.01,-0.0,29.75,3.0,
922,271,209,1,0.45,2.48,9.03,-0.01,-0.02,0.0,29.71,3.0,
922,271,209,2,0.51,2.47,9.07,-0.01,-0.02,-0.0,29.8,3.0,
922,271,209,3,0.46,2.51,9.01,-0.01,-0.01,-0.0,29.75,3.0,
922,271,209,4,0.45,2.47,9.12,-0.01,-0.02,0.0,29.75,3.0,
922,271,209,5,0.51,2.5,9.14,-0.01,-0.01,-0.0,29.75,3.0,
922,271,209,6,0.51,2.49,9.14,-0.01,-0.01,-0.0,29.8,3.0,
922,271,209,7,0.49,2.51,9.17,-0.01,-0.02,0.01,29.8,2.0,
922,271,209,8,0.46,2.48,9.15,-0.01,-0.01,-0.0,29.8,2.0,
922,271,209,9,0.52,2.43,9.15,-0.01,-0.02,0.0,29.71,2.0,
922,271,209,10,0.5,2.48,9.08,-0.01,-0.01,0.0,29.75,3.0,
922,271,209,11,0.44,2.51,9.11,-0.01,-0.01,0.0,29.85,3.0,
922,271,209,12,0.45,2.47,9.12,-0.01,-0.02,0.0,29.66,3.0,
922,271,209,13,0.51,2.54,9.11,-0.01,-0.02,-0.0,29.71,3.0,
922,271,209,14,0.48,2.5,9.2,-0.01,-0.02,0.0,29.71,3.0,
922,271,209,15,0.52,2.53,9.15,-0.01,-0.02,0.0,29.71,3.0,
922,271,209,16,0.46,2.53,9.22,-0.01,-0.01,-0.0,29.66,3.0,
922,271,209,17,0.46,2.52,9.19,-0.01,-0.02,-0.0,29.75,3.0,
922,271,209,18,0.44,2.45,9.11,-0.01,-0.01,0.0,29.75,3.0,
922,271,209,19,0.49,2.45,9.14,-0.01,-0.01,0.0,29.66,3.0,
923,288,227,0,0.46,2.53,9.19,-0.01,-0.01,-0.0,29.75,3.0,
923,288,227,1,0.5,2.48,9.19,-0.01,-0.01,0.0,29.8,3.0,
923,288,227,2,0.44,2.55,9.13,-0.01,-0.02,0.0,29.8,3.0,
923,288,227,3,0.48,2.54,9.18,-0.01,-0.01,-0.0,29.8,3.0,
923,288,227,4,0.39,2.54,9.11,-0.01,-0.02,0.0,29.75,3.0,
923,288,227,5,0.46,2.52,9.07,-0.01,-0.01,0.0,29.75,3.0,
923,288,227,6,0.49,2.48,9.14,-0.01,-0.01,0.0,29.8,3.0,
923,288,227,7,0.49,2.43,9.17,-0.01,-0.02,-0.0,29.8,3.0,
923,288,227,8,0.45,2.54,9.14,-0.01,-0.01,-0.0,29.71,3.0,
923,288,227,9,0.46,2.47,9.15,-0.01,-0.01,0.0,29.71,3.0,
923,288,227,10,0.52,2.5,9.19,-0.01,-0.01,0.0,29.71,3.0,
923,288,227,11,0.47,2.53,9.09,-0.01,-0.02,0.0,29.75,3.0,
923,288,227,12,0.54,2.46,9.15,-0.01,-0.01,-0.0,29.75,3.0,
923,288,227,13,0.45,2.5,9.14,-0.01,-0.02,-0.0,29.75,3.0,
923,288,227,14,0.41,2.41,9.15,-0.01,-0.02,0.0,29.66,3.0,
923,288,227,15,0.5,2.51,9.15,-0.01,-0.02,-0.0,29.75,3.0,
923,288,227,16,0.49,2.51,9.2,-0.01,-0.02,-0.0,29.71,3.0,
923,288,227,17,0.48,2.54,9.16,-0.01,-0.01,0.0,29.71,3.0,
923,288,227,18,0.53,2.51,9.14,-0.01,-0.01,-0.0,29.8,3.0,
923,288,227,19,0.46,2.56,9.14,-0.01,-0.01,-0.0,29.71,3.0,
924,278,216,0,0.54,2.48,9.1,-0.01,-0.02,0.0,29.66,3.0,
924,278,216,1,0.49,2.46,9.12,-0.01,-0.01,-0.0,29.75,3.0,
924,278,216,2,0.46,2.48,9.18,-0.01,-0.02,-0.0,29.66,3.0,
924,278,216,3,0.41,2.5,9.09,-0.01,-0.02,0.0,29.75,3.0,
924,278,216,4,0.49,2.5,9.14,-0.01,-0.02,-0.0,29.75,3.0,
924,278,216,5,0.44,2.46,9.16,-0.01,-0.01,0.0,29.61,2.0,
924,278,216,6,0.47,2.51,9.21,-0.01,-0.02,0.0,29.8,2.0,
924,278,216,7,0.47,2.46,9.19,-0.01,-0.01,-0.0,29.8,2.0,
924,278,216,8,0.47,2.51,9.18,-0.01,-0.02,-0.0,29.75,3.0,
924,278,216,9,0.48,2.46,9.2,-0.01,-0.01,0.0,29.75,3.0,
924,278,216,10,0.45,2.49,9.14,-0.02,-0.01,0.0,29.75,3.0,
924,278,216,11,0.46,2.54,9.12,-0.01,-0.02,-0.0,29.66,3.0,
924,278,216,12,0.46,2.53,9.11,-0.01,-0.01,-0.0,29.8,3.0,
924,278,216,13,0.45,2.48,9.23,-0.01,-0.02,-0.0,29.8,3.0,
924,278,216,14,0.43,2.49,9.17,-0.01,-0.01,0.0,29.71,3.0,
924,278,216,15,0.47,2.53,9.2,-0.01,-0.02,-0.0,29.75,3.0,
924,278,216,16,0.42,2.54,9.12,-0.01,-0.02,0.0,29.75,3.0,
924,278,216,17,0.48,2.46,9.2,-0.01,-0.02,0.0,29.66,3.0,
924,278,216,18,0.52,2.5,9.19,-0.01,-0.01,0.0,29.75,3.0,
924,278,216,19,0.49,2.44,9.07,-0.01,-0.02,-0.0,29.85,3.0,
925,255,193,0,0.48,2.54,9.18,-0.02,-0.01,-0.0,29.75,3.0,
925,255,193,1,0.45,2.47,9.09,-0.01,-0.02,-0.0,29.75,3.0,
925,255,193,2,0.44,2.46,9.14,-0.01,-0.02,0.0,29.66,3.0,
925,255,193,3,0.42,2.53,9.14,-0.01,-0.01,0.0,29.66,3.0,
925,255,193,4,0.49,2.45,9.16,-0.01,-0.01,0.0,29.75,3.0,
925,255,193,5,0.47,2.49,9.11,-0.01,-0.02,0.0,29.71,3.0,
925,255,193,6,0.52,2.55,9.14,-0.01,-0.01,0.0,29.8,3.0,
925,255,193,7,0.42,2.48,9.19,-0.01,-0.01,0.0,29.71,3.0,
925,255,193,8,0.47,2.49,9.11,-0.01,-0.02,-0.0,29.75,3.0,
925,255,193,9,0.49,2.57,9.13,-0.01,-0.01,-0.0,29.75,3.0,
925,255,193,10,0.48,2.49,9.12,-0.01,-0.01,0.0,29.75,3.0,
925,255,193,11,0.43,2.51,9.17,-0.01,-0.02,-0.0,29.75,3.0,
925,255,193,12,0.45,2.47,9.19,-0.01,-0.01,0.0,29.75,3.0,
925,255,193,13,0.45,2.46,9.05,-0.01,-0.02,0.0,29.66,3.0,
925,255,193,14,0.46,2.45,9.11,-0.01,-0.02,0.0,29.66,3.0,
925,255,193,15,0.44,2.52,9.13,-0.01,-0.01,-0.0,29.71,3.0,
925,255,193,16,0.44,2.55,9.22,-0.01,-0.01,0.0,29.8,3.0,
925,255,193,17,0.42,2.49,9.15,-0.01,-0.02,0.0,29.8,3.0,
925,255,193,18,0.47,2.47,9.11,-0.01,-0.01,0.0,29.71,3.0,
925,255,193,19,0.49,2.43,9.17,-0.02,-0.01,-0.0,29.71,3.0,
926,271,208,0,0.47,2.49,9.14,-0.01,-0.02,-0.0,29.71,3.0,
926,271,208,1,0.46,2.46,9.13,-0.01,-0.02,-0.0,29.75,3.0,
926,271,208,2,0.44,2.47,9.15,-0.01,-0.02,0.0,29.85,3.0,
926,271,208,3,0.49,2.47,9.17,-0.01,-0.01,-0.0,29.66,3.0,
926,271,208,4,0.47,2.53,9.19,-0.01,-0.01,-0.0,29.71,3.0,
926,271,208,5,0.46,2.48,9.18,-0.01,-0.01,0.0,29.71,3.0,
926,271,208,6,0.47,2.49,9.17,-0.01,-0.01,0.0,29.71,3.0,
926,271,208,7,0.47,2.55,9.1,-0.01,-0.01,-0.0,29.71,3.0,
926,271,208,8,0.43,2.5,9.22,-0.01,-0.01,0.0,29.8,3.0,
926,271,208,9,0.44,2.44,9.18,-0.02,-0.01,0.0,29.75,3.0,
926,271,208,10,0.5,2.48,9.14,-0.01,-0.02,-0.0,29.66,3.0,
926,271,208,11,0.5,2.53,9.17,-0.02,-0.02,0.0,29.75,3.0,
926,271,208,12,0.5,2.51,9.21,-0.01,-0.01,-0.0,29.75,3.0,
926,271,208,13,0.46,2.44,9.11,-0.01,-0.01,-0.0,29.75,3.0,
926,271,208,14,0.46,2.5,9.11,-0.01,-0.02,0.0,29.8,3.0,
926,271,208,15,0.52,2.5,9.08,-0.01,-0.01,0.0,29.71,3.0,
926,271,208,16,0.45,2.49,9.05,-0.01,-0.01,0.0,29.8,2.0,
926,271,208,17,0.47,2.51,9.14,-0.01,-0.02,-0.0,29.71,2.0,
926,271,208,18,0.48,2.51,9.16,-0.01,-0.02,0.0,29.66,2.0,
926,271,208,19,0.49,2.44,9.13,-0.01,-0.02,-0.0,29.75,3.0,
927,259,198,0,0.48,2.43,9.21,-0.01,-0.01,0.0,29.71,3.0,
927,259,198,1,0.45,2.53,9.18,-0.01,-0.01,-0.0,29.75,3.0,
927,259,198,2,0.5,2.49,9.11,-0.01,-0.02,-0.0,29.66,3.0,
927,259,198,3,0.45,2.57,9.1,-0.01,-0.01,-0.0,29.71,3.0,
927,259,198,4,0.45,2.52,9.23,-0.01,-0.01,0.0,29.8,3.0,
927,259,198,5,0.45,2.46,9.13,-0.01,-0.01,0.0,29.66,2.0,
927,259,198,6,0.51,2.43,9.15,-0.01,-0.02,0.0,29.75,2.0,
927,259,198,7,0.4,2.52,9.1,-0.02,-0.01,-0.0,29.66,2.0,
927,259,198,8,0.52,2.51,9.13,-0.01,-0.01,0.0,29.75,3.0,
927,259,198,9,0.41,2.51,9.09,-0.01,-0.01,0.0,29.75,3.0,
927,259,198,10,0.53,2.48,9.11,-0.01,-0.02,-0.0,29.71,3.0,
927,259,198,11,0.45,2.5,9.17,-0.01,-0.01,-0.0,29.71,3.0,
927,259,198,12,0.47,2.47,9.11,-0.01,-0.01,-0.0,29.71,3.0,
927,259,198,13,0.43,2.49,9.15,-0.01,-0.01,0.0,29.71,3.0,
927,259,198,14,0.45,2.51,9.09,-0.01,-0.01,-0.0,29.75,3.0,
927,259,198,15,0.5,2.51,9.11,-0.01,-0.01,0.0,29.66,3.0,
927,259,198,16,0.47,2.49,9.1,-0.01,-0.02,0.0,29.75,3.0,
927,259,198,17,0.47,2.47,9.14,-0.01,-0.01,-0.0,29.71,3.0,
927,259,198,18,0.49,2.52,9.12,-0.01,-0.02,0.0,29.71,3.0,
927,259,198,19,0.5,2.44,9.13,-0.01,-0.02,0.0,29.71,3.0,
928,270,208,0,0.41,2.49,9.08,-0.01,-0.02,0.0,29.8,3.0,
928,270,208,1,0.48,2.58,9.17,-0.01,-0.02,0.0,29.71,3.0,
928,270,208,2,0.51,2.48,9.13,-0.01,-0.02,0.0,29.71,3.0,
928,270,208,3,0.5,2.52,9.07,-0.01,-0.01,-0.0,29.71,3.0,
928,270,208,4,0.45,2.51,9.15,-0.01,-0.01,0.0,29.8,3.0,
928,270,208,5,0.51,2.53,9.11,-0.01,-0.02,-0.0,29.71,3.0,
928,270,208,6,0.45,2.49,9.19,-0.01,-0.01,-0.0,29.66,3.0,
928,270,208,7,0.43,2.49,9.09,-0.01,-0.01,0.0,29.75,3.0,
928,270,208,8,0.47,2.5,9.17,-0.01,-0.01,0.0,29.75,3.0,
928,270,208,9,0.46,2.53,9.24,-0.01,-0.01,-0.0,29.66,3.0,
928,270,208,10,0.51,2.49,9.15,-0.02,-0.02,0.0,29.71,3.0,
928,270,208,11,0.44,2.53,9.13,-0.01,-0.01,0.0,29.71,3.0,
928,270,208,12,0.5,2.54,9.15,-0.01,-0.01,-0.0,29.75,3.0,
928,270,208,13,0.48,2.51,9.14,-0.01,-0.01,0.0,29.66,3.0,
928,270,208,14,0.38,2.52,9.21,-0.01,-0.01,0.0,29.66,3.0,
928,270,208,15,0.48,2.47,9.27,-0.01,-0.02,0.0,29.66,3.0,
928,270,208,16,0.5,2.47,9.19,-0.01,-0.01,-0.0,29.66,3.0,
928,270,208,17,0.45,2.41,9.05,-0.01,-0.01,0.0,29.75,3.0,
928,270,208,18,0.45,2.49,9.11,-0.01,-0.02,0.0,29.66,3.0,
928,270,208,19,0.48,2.51,9.21,-0.01,-0.02,-0.0,29.71,3.0,
930,1622,1560,0,0.45,2.44,9.23,-0.01,-0.02,-0.0,29.75,3.0,
930,1622,1560,1,0.43,2.44,9.16,-0.01,-0.01,0.0,29.75,3.0,
930,1622,1560,2,0.51,2.53,9.22,-0.01,-0.01,0.0,29.75,3.0,
930,1622,1560,3,0.44,2.43,9.17,-0.01,-0.02,-0.0,29.75,3.0,
930,1622,1560,4,0.52,2.46,9.1,-0.01,-0.01,0.0,29.66,3.0,
930,1622,1560,5,0.5,2.41,9.18,-0.01,-0.01,0.0,29.75,3.0,
930,1622,1560,6,0.5,2.5,9.08,-0.01,-0.01,-0.0,29.75,3.0,
930,1622,1560,7,0.47,2.48,9.09,-0.01,-0.02,0.0,29.66,3.0,
930,1622,1560,8,0.48,2.49,9.14,-0.01,-0.02,0.0,29.57,3.0,
930,1622,1560,9,0.5,2.49,9.17,-0.01,-0.02,-0.0,29.75,3.0,
930,1622,1560,10,0.48,2.51,9.13,-0.01,-0.02,0.0,29.71,3.0,
930,1622,1560,11,0.5,2.49,9.19,-0.01,-0.02,-0.0,29.71,3.0,
930,1622,1560,12,0.48,2.49,9.25,-0.01,-0.01,-0.0,29.71,3.0,
930,1622,1560,13,0.42,2.51,9.16,-0.01,-0.01,-0.0,29.61,3.0,
930,1622,1560,14,0.45,2.56,9.13,-0.01,-0.01,0.0,29.8,3.0,
930,1622,1560,15,0.46,2.5,9.18,-0.01,-0.02,0.0,29.71,3.0,
930,1622,1560,16,0.49,2.49,9.21,-0.01,-0.01,0.0,29.71,3.0,
930,1622,1560,17,0.5,2.47,9.17,-0.01,-0.01,0.0,29.75,3.0,
930,1622,1560,18,0.51,2.49,9.07,-0.01,-0.01,-0.0,29.75,3.0,
930,1622,1560,19,0.49,2.55,9.1,-0.01,-0.02,-0.0,29.75,3.0,
931,260,199,0,0.47,2.47,9.16,-0.01,-0.02,-0.0,29.71,3.0,
931,260,199,1,0.43,2.5,9.19,-0.01,-0.01,-0.0,29.71,2.0,
931,260,199,2,0.45,2.47,9.08,-0.01,-0.01,0.0,29.71,2.0,
931,260,199,3,0.45,2.52,9.23,-0.01,-0.02,-0.0,29.71,2.0,
931,260,199,4,0.44,2.51,9.19,-0.01,-0.01,-0.0,29.71,3.0,
931,260,199,5,0.49,2.47,9.09,-0.01,-0.01,0.0,29.75,3.0,
931,260,199,6,0.42,2.48,9.17,-0.01,-0.01,-0.0,29.75,3.0,
931,260,199,7,0.45,2.47,9.16,-0.01,-0.01,-0.0,29.66,3.0,
931,260,199,8,0.49,2.45,9.25,-0.01,-0.01,-0.0,29.66,3.0,
931,260,199,9,0.51,2.47,9.15,-0.01,-0.02,0.0,29.71,3.0,
931,260,199,10,0.44,2.51,9.15,-0.01,-0.02,-0.0,29.71,3.0,
931,260,199,11,0.42,2.48,9.15,-0.01,-0.01,0.0,29.71,3.0,
931,260,199,12,0.46,2.5,9.23,-0.01,-0.01,0.0,29.75,3.0,
931,260,199,13,0.47,2.47,9.19,-0.01,-0.02,0.0,29.75,3.0,
931,260,199,14,0.47,2.47,9.12,-0.01,-0.02,-0.0,29.85,3.0,
931,260,199,15,0.47,2.52,9.13,-0.01,-0.01,0.0,29.66,3.0,
931,260,199,16,0.44,2.54,9.1,-0.01,-0.01,0.0,29.75,3.0,
931,260,199,17,0.47,2.5,9.07,-0.02,-0.01,0.0,29.75,3.0,
931,260,199,18,0.48,2.44,9.12,-0.01,-0.02,0.0,29.75,3.0,
931,260,199,19,0.45,2.51,9.15,-0.01,-0.01,0.0,29.66,3.0,
932,260,199,0,0.49,2.43,9.11,-0.01,-0.01,0.0,29.66,3.0,
932,260,199,1,0.49,2.44,9.09,-0.01,-0.01,0.0,29.75,3.0,
932,260,199,2,0.5,2.46,9.09,-0.01,-0.02,0.0,29.66,3.0,
932,260,199,3,0.46,2.45,9.07,-0.01,-0.01,0.0,29.66,3.0,
932,260,199,4,0.44,2.55,9.21,-0.01,-0.01,-0.0,29.75,3.0,
932,260,199,5,0.51,2.53,9.19,-0.02,-0.01,0.0,29.75,3.0,
932,260,199,6,0.49,2.38,9.19,-0.01,-0.02,-0.0,29.71,3.0,
932,260,199,7,0.49,2.43,9.12,-0.01,-0.01,-0.0,29.71,3.0,
932,260,199,8,0.48,2.6,9.18,-0.01,-0.01,-0.0,29.66,3.0,
932,260,199,9,0.48,2.45,9.17,-0.01,-0.02,0.0,29.75,3.0,
932,260,199,10,0.48,2.5,9.19,-0.01,-0.01,0.0,29.75,3.0,
932,260,199,11,0.51,2.51,9.08,-0.02,-0.02,-0.0,29.66,3.0,
932,260,199,12,0.44,2.46,9.11,-0.01,-0.01,0.0,29.66,3.0,
932,260,199,13,0.52,2.47,9.16,-0.01,-0.01,0.0,29.75,3.0,
932,260,199,14,0.49,2.47,9.03,-0.01,-0.02,-0.0,29.71,3.0,
932,260,199,15,0.53,2.51,9.11,-0.01,-0.01,0.0,29.71,3.0,
932,260,199,16,0.51,2.5,9.13,-0.01,-0.02,-0.0,29.71,3.0,
932,260,199,17,0.42,2.45,9.19,-0.01,-0.01,-0.0,29.71,3.0,
932,260,199,18,0.43,2.49,9.04,-0.01,-0.01,-0.0,29.71,3.0,
932,260,199,19,0.43,2.43,9.12,-0.01,-0.01,-0.0,29.71,3.0,
933,259,197,0,0.44,2.56,9.12,-0.01,-0.01,0.0,29.71,3.0,
933,259,197,1,0.48,2.48,9.08,-0.01,-0.01,-0.0,29.75,3.0,
933,259,197,2,0.45,2.51,9.21,-0.01,-0.01,-0.0,29.66,3.0,
933,259,197,3,0.43,2.5,9.16,-0.01,-0.02,0.0,29.66,3.0,
933,259,197,4,0.49,2.48,9.21,-0.01,-0.02,-0.0,29.71,3.0,
933,259,197,5,0.46,2.5,9.16,-0.01,-0.01,-0.0,29.71,3.0,
933,259,197,6,0.51,2.5,9.19,-0.01,-0.02,0.0,29.71,3.0,
933,259,197,7,0.51,2.5,9.11,-0.01,-0.02,0.0,29.66,3.0,
933,259,197,8,0.44,2.5,9.14,-0.01,-0.02,0.0,29.75,3.0,
933,259,197,9,0.47,2.51,9.13,-0.01,-0.01,0.0,29.75,3.0,
933,259,197,10,0.45,2.51,9.08,-0.01,-0.01,0.0,29.75,3.0,
933,259,197,11,0.47,2.52,9.17,-0.01,-0.01,0.0,29.71,3.0,
933,259,197,12,0.47,2.49,9.26,-0.01,-0.01,0.0,29.8,3.0,
933,259,197,13,0.48,2.55,9.09,-0.01,-0.01,0.0,29.8,3.0,
933,259,197,14,0.51,2.47,9.11,-0.01,-0.02,-0.0,29.71,3.0,
933,259,197,15,0.45,2.49,9.13,-0.01,-0.02,-0.0,29.71,3.0,
933,259,197,16,0.5,2.5,9.15,-0.01,-0.01,0.0,29.71,3.0,
933,259,197,17,0.46,2.51,9.13,-0.01,-0.01,0.0,29.8,3.0,
933,259,197,18,0.48,2.47,9.11,-0.01,-0.02,0.0,29.66,3.0,
933,259,197,19,0.46,2.48,9.06,-0.01,-0.01,-0.0,29.66,3.0,
934,280,218,0,0.46,2.49,9.2,-0.01,-0.02,-0.0,29.66,3.0,
934,280,218,1,0.44,2.52,9.18,-0.01,-0.01,0.0,29.71,3.0,
934,280,218,2,0.54,2.43,9.18,-0.02,-0.01,-0.0,29.71,3.0,
934,280,218,3,0.52,2.5,9.13,-0.01,-0.02,0.0,29.61,3.0,
934,280,218,4,0.5,2.52,9.06,-0.01,-0.01,0.0,29.71,3.0,
934,280,218,5,0.48,2.47,9.05,-0.01,-0.01,-0.0,29.71,3.0,
934,280,218,6,0.48,2.51,9.15,-0.01,-0.02,-0.0,29.71,3.0,
934,280,218,7,0.4,2.43,9.14,-0.01,-0.01,0.0,29.66,3.0,
934,280,218,8,0.49,2.44,9.18,-0.01,-0.01,0.0,29.75,3.0,
934,280,218,9,0.47,2.49,9.18,-0.01,-0.01,-0.0,29.66,3.0,
934,280,218,10,0.46,2.47,9.15,-0.01,-0.01,0.0,29.66,3.0,
934,280,218,11,0.43,2.5,9.07,-0.01,-0.01,-0.0,29.66,3.0,
934,280,218,12,0.47,2.51,9.12,-0.01,-0.01,0.0,29.66,3.0,
934,280,218,13,0.48,2.44,9.2,-0.01,-0.02,0.0,29.71,3.0,
934,280,218,14,0.48,2.47,9.17,-0.01,-0.02,0.0,29.71,3.0,
934,280,218,15,0.45,2.49,9.14,-0.01,-0.01,0.0,29.61,3.0,
934,280,218,16,0.54,2.48,9.14,-0.01,-0.02,0.0,29.71,3.0,
934,280,218,17,0.51,2.45,9.17,-0.01,-0.01,-0.0,29.61,3.0,
934,280,218,18,0.49,2.53,9.19,-0.01,-0.02,0.0,29.66,3.0,
934,280,218,19,0.48,2.51,9.08,-0.01,-0.02,0.0,29.57,2.0,
935,267,205,0,0.48,2.49,9.09,-0.01,-0.01,-0.0,29.75,3.0,
935,267,205,1,0.43,2.43,9.08,-0.01,-0.02,0.0,29.61,3.0,
935,267,205,2,0.46,2.5,9.14,-0.01,-0.02,0.0,29.75,3.0,
935,267,205,3,0.48,2.45,9.19,-0.01,-0.01,0.0,29.66,3.0,
935,267,205,4,0.47,2.49,9.2,-0.01,-0.01,0.0,29.66,3.0,
935,267,205,5,0.45,2.44,9.13,-0.01,-0.02,0.0,29.66,3.0,
935,267,205,6,0.51,2.47,9.11,-0.01,-0.02,0.0,29.75,3.0,
935,267,205,7,0.44,2.49,9.16,-0.01,-0.01,-0.0,29.71,3.0,
935,267,205,8,0.47,2.5,9.18,-0.01,-0.01,0.0,29.61,3.0,
935,267,205,9,0.46,2.47,9.13,-0.01,-0.01,-0.0,29.8,3.0,
935,267,205,10,0.5,2.52,9.15,-0.01,-0.01,-0.0,29.75,3.0,
935,267,205,11,0.43,2.48,9.18,-0.01,-0.01,-0.0,29.66,3.0,
935,267,205,12,0.47,2.49,9.11,-0.01,-0.02,0.0,29.75,2.0,
935,267,205,13,0.45,2.47,9.12,-0.01,-0.01,0.0,29.66,2.0,
935,267,205,14,0.47,2.47,9.06,-0.01,-0.02,0.0,29.66,3.0,
935,267,205,15,0.44,2.51,9.11,-0.02,-0.01,0.0,29.71,3.0,
935,267,205,16,0.47,2.5,9.2,-0.01,-0.01,-0.0,29.71,3.0,
935,267,205,17,0.48,2.54,9.12,-0.01,-0.01,0.0,29.61,3.0,
935,267,205,18,0.49,2.54,9.22,-0.01,-0.02,0.0,29.71,3.0,
935,267,205,19,0.42,2.52,9.07,-0.01,-0.01,-0.0,29.66,3.0,
936,272,210,0,0.51,2.53,9.18,-0.01,-0.02,-0.0,29.66,4.0,
936,272,210,1,0.46,2.52,9.18,-0.01,-0.01,0.0,29.71,3.0,
936,272,210,2,0.45,2.45,9.12,-0.01,-0.02,-0.0,29.71,3.0,
936,272,210,3,0.49,2.48,9.08,-0.01,-0.02,-0.0,29.71,3.0,
936,272,210,4,0.42,2.49,9.11,-0.01,-0.02,-0.0,29.66,2.0,
936,272,210,5,0.45,2.49,9.0,-0.01,-0.01,0.0,29.66,2.0,
936,272,210,6,0.47,2.53,9.22,-0.01,-0.02,-0.0,29.75,3.0,
936,272,210,7,0.51,2.46,9.22,-0.02,-0.02,0.01,29.71,3.0,
936,272,210,8,0.46,2.52,9.15,-0.01,-0.02,-0.0,29.71,3.0,
936,272,210,9,0.52,2.5,9.15,-0.01,-0.02,0.0,29.61,3.0,
936,272,210,10,0.51,2.49,9.13,-0.01,-0.01,0.0,29.71,3.0,
936,272,210,11,0.38,2.45,9.22,-0.01,-0.01,0.0,29.66,3.0,
936,272,210,12,0.47,2.49,9.14,-0.01,-0.02,-0.0,29.75,3.0,
936,272,210,13,0.52,2.54,9.21,-0.02,-0.02,0.0,29.66,3.0,
936,272,210,14,0.47,2.48,9.18,-0.01,-0.01,-0.0,29.75,3.0,
936,272,210,15,0.43,2.46,9.16,-0.01,-0.02,-0.0,29.61,3.0,
936,272,210,16,0.43,2.5,9.11,-0.01,-0.01,-0.0,29.71,3.0,
936,272,210,17,0.49,2.44,9.19,-0.01,-0.01,-0.0,29.57,3.0,
936,272,210,18,0.46,2.45,9.12,-0.01,-0.01,0.0,29.66,3.0,
936,272,210,19,0.51,2.56,9.11,-0.01,-0.02,-0.0,29.66,3.0,
937,397,334,0,0.47,2.47,9.05,-0.01,-0.02,0.0,29.66,3.0,
937,397,334,1,0.54,2.47,9.14,-0.01,-0.02,-0.0,29.61,3.0,
937,397,334,2,0.51,2.48,9.05,-0.01,-0.01,0.0,29.61,3.0,
937,397,334,3,0.5,2.5,9.09,-0.01,-0.01,-0.0,29.71,3.0,
937,397,334,4,0.49,2.51,9.14,-0.01,-0.01,0.0,29.71,3.0,
937,397,334,5,0.43,2.55,9.14,-0.01,-0.01,0.0,29.66,3.0,
937,397,334,6,0.49,2.47,9.13,-0.01,-0.01,-0.0,29.66,3.0,
937,397,334,7,0.51,2.49,9.06,-0.01,-0.01,0.0,29.66,3.0,
937,397,334,8,0.39,2.52,9.17,-0.01,-0.01,0.0,29.75,3.0,
937,397,334,9,0.46,2.45,9.11,-0.01,-0.02,-0.0,29.75,3.0,
937,397,334,10,0.48,2.53,9.05,-0.01,-0.01,0.0,29.66,3.0,
937,397,334,11,0.47,2.48,9.16,-0.01,-0.01,0.0,29.61,3.0,
937,397,334,12,0.45,2.48,9.15,-0.01,-0.02,-0.0,29.71,3.0,
937,397,334,13,0.43,2.49,9.08,-0.01,-0.01,-0.0,29.71,3.0,
937,397,334,14,0.47,2.58,9.15,-0.01,-0.01,-0.0,29.71,3.0,
937,397,334,15,0.42,2.48,9.16,-0.01,-0.02,-0.0,29.61,3.0,
937,397,334,16,0.54,2.5,9.17,-0.01,-0.02,-0.0,29.66,3.0,
937,397,334,17,0.51,2.5,9.12,-0.01,-0.02,-0.0,29.57,3.0,
937,397,334,18,0.53,2.51,9.17,-0.01,-0.01,0.0,29.66,3.0,
937,397,334,19,0.48,2.5,9.03,-0.01,-0.01,0.0,29.57,3.0,
938,379,317,0,0.48,2.45,9.15,-0.01,-0.01,0.0,29.57,3.0,
938,379,317,1,0.4,2.48,9.18,-0.01,-0.02,-0.0,29.75,3.0,
938,379,317,2,0.5,2.52,9.12,-0.01,-0.02,-0.0,29.66,3.0,
938,379,317,3,0.45,2.46,9.2,-0.01,-0.01,0.0,29.66,3.0,
938,379,317,4,0.5,2.48,9.11,-0.01,-0.01,-0.0,29.66,3.0,
938,379,317,5,0.42,2.5,9.15,-0.01,-0.01,0.0,29.75,3.0,
938,379,317,6,0.48,2.49,9.04,-0.01,-0.02,0.0,29.71,3.0,
938,379,317,7,0.46,2.48,9.15,-0.01,-0.01,0.0,29.61,3.0,
938,379,317,8,0.53,2.52,9.12,-0.01,-0.01,-0.0,29.61,3.0,
938,379,317,9,0.44,2.5,9.11,-0.01,-0.01,0.0,29.61,3.0,
938,379,317,10,0.48,2.5,9.13,-0.01,-0.01,0.0,29.66,3.0,
938,379,317,11,0.49,2.52,9.17,-0.01,-0.02,0.0,29.75,3.0,
938,379,317,12,0.45,2.45,9.21,-0.01,-0.01,-0.0,29.66,3.0,
938,379,317,13,0.47,2.53,9.12,-0.01,-0.01,-0.0,29.66,3.0,
938,379,317,14,0.49,2.45,9.04,-0.01,-0.02,0.0,29.57,3.0,
938,379,317,15,0.48,2.53,9.11,-0.01,-0.02,-0.0,29.61,3.0,
938,379,317,16,0.47,2.48,9.11,-0.01,-0.01,-0.0,29.71,3.0,
938,379,317,17,0.49,2.55,9.11,-0.01,-0.02,0.0,29.71,3.0,
938,379,317,18,0.53,2.54,9.23,-0.01,-0.01,0.0,29.75,3.0,
938,379,317,19,0.46,2.47,9.12,-0.01,-0.01,-0.0,29.66,3.0,
939,271,209,0,0.48,2.41,9.11,-0.01,-0.02,-0.0,29.66,3.0,
939,271,209,1,0.46,2.52,9.14,-0.01,-0.02,0.0,29.66,3.0,
939,271,209,2,0.49,2.54,9.14,-0.01,-0.01,0.0,29.66,3.0,
939,271,209,3,0.51,2.45,9.13,-0.01,-0.01,0.0,29.57,3.0,
939,271,209,4,0.41,2.5,9.15,-0.01,-0.01,0.0,29.66,3.0,
939,271,209,5,0.46,2.44,9.07,-0.01,-0.02,-0.0,29.61,3.0,
939,271,209,6,0.44,2.44,9.13,-0.01,-0.02,-0.0,29.61,3.0,
939,271,209,7,0.43,2.51,9.12,-0.01,-0.02,0.0,29.71,3.0,
939,271,209,8,0.51,2.44,9.2,-0.01,-0.02,0.01,29.71,3.0,
939,271,209,9,0.52,2.47,9.11,-0.01,-0.01,-0.01,29.71,3.0,
939,271,209,10,0.48,2.49,9.01,-0.01,-0.01,-0.0,29.75,3.0,
939,271,209,11,0.48,2.48,9.09,-0.01,-0.02,0.0,29.57,3.0,
939,271,209,12,0.47,2.5,9.13,-0.01,-0.01,0.0,29.75,3.0,
939,271,209,13,0.46,2.46,9.08,-0.01,-0.02,-0.0,29.75,3.0,
939,271,209,14,0.5,2.52,9.2,-0.01,-0.01,0.0,29.66,3.0,
939,271,209,15,0.43,2.51,9.24,-0.01,-0.01,-0.0,29.57,3.0,
939,271,209,16,0.55,2.52,9.14,-0.01,-0.02,0.0,29.61,3.0,
939,271,209,17,0.49,2.48,9.11,-0.01,-0.01,-0.0,29.61,3.0,
939,271,209,18,0.49,2.48,9.12,-0.01,-0.02,0.0,29.61,3.0,
939,271,209,19,0.48,2.48,9.14,-0.01,-0.01,0.0,29.61,3.0,
940,261,200,0,0.47,2.49,9.15,-0.01,-0.01,-0.0,29.57,3.0,
940,261,200,1,0.51,2.55,9.17,-0.01,-0.02,-0.0,29.61,3.0,
940,261,200,2,0.46,2.51,9.19,-0.01,-0.01,-0.0,29.61,3.0,
940,261,200,3,0.44,2.59,9.16,-0.01,-0.02,0.01,29.61,3.0,
940,261,200,4,0.44,2.49,9.06,-0.01,-0.01,0.0,29.66,3.0,
940,261,200,5,0.54,2.46,9.14,-0.01,-0.01,0.0,29.66,3.0,
940,261,200,6,0.46,2.44,9.11,-0.01,-0.01,-0.0,29.57,3.0,
940,261,200,7,0.42,2.45,9.17,-0.01,-0.02,0.0,29.66,3.0,
940,261,200,8,0.45,2.51,9.13,-0.01,-0.01,-0.0,29.61,3.0,
940,261,200,9,0.43,2.46,9.13,-0.01,-0.01,-0.0,29.71,3.0,
940,261,200,10,0.49,2.49,9.1,-0.01,-0.01,0.01,29.71,3.0,
940,261,200,11,0.51,2.51,9.22,-0.01,-0.02,-0.0,29.66,3.0,
940,261,200,12,0.52,2.51,9.08,-0.01,-0.02,-0.0,29.57,3.0,
940,261,200,13,0.51,2.49,9.13,-0.01,-0.01,0.0,29.66,3.0,
940,261,200,14,0.47,2.49,9.14,-0.01,-0.01,-0.0,29.66,3.0,
940,261,200,15,0.43,2.48,9.12,-0.01,-0.01,0.0,29.66,3.0,
940,261,200,16,0.48,2.51,9.17,-0.01,-0.02,0.0,29.66,3.0,
940,261,200,17,0.47,2.53,9.2,-0.01,-0.01,0.0,29.61,3.0,
940,261,200,18,0.46,2.48,9.15,-0.01,-0.01,0.0,29.61,3.0,
940,261,200,19,0.51,2.46,9.14,-0.01,-0.01,-0.0,29.71,3.0,
941,276,215,0,0.52,2.55,9.07,-0.01,-0.02,0.0,29.71,4.0,
941,276,215,1,0.45,2.51,9.18,-0.01,-0.01,-0.0,29.47,3.0,
941,276,215,2,0.45,2.54,9.13,-0.01,-0.01,0.0,29.66,3.0,
941,276,215,3,0.45,2.51,9.17,-0.01,-0.02,-0.0,29.66,2.0,
941,276,215,4,0.48,2.48,9.04,-0.01,-0.02,-0.0,29.75,2.0,
941,276,215,5,0.5,2.5,9.06,-0.01,-0.01,0.0,29.61,3.0,
941,276,215,6,0.5,2.52,9.16,-0.01,-0.01,0.0,29.61,3.0,
941,276,215,7,0.43,2.53,9.08,-0.01,-0.02,-0.0,29.52,3.0,
941,276,215,8,0.41,2.48,9.14,-0.01,-0.01,0.0,29.71,3.0,
941,276,215,9,0.49,2.48,9.17,-0.02,-0.02,0.0,29.61,3.0,
941,276,215,10,0.49,2.53,9.14,-0.01,-0.01,0.0,29.66,3.0,
941,276,215,11,0.44,2.45,9.14,-0.01,-0.02,0.0,29.57,3.0,
941,276,215,12,0.49,2.51,9.17,-0.01,-0.01,-0.0,29.66,3.0,
941,276,215,13,0.48,2.48,9.14,-0.01,-0.01,0.0,29.57,3.0,
941,276,215,14,0.47,2.51,9.26,-0.01,-0.01,0.0,29.61,3.0,
941,276,215,15,0.44,2.48,9.16,-0.01,-0.02,0.0,29.61,3.0,
941,276,215,16,0.51,2.47,9.17,-0.01,-0.01,0.0,29.66,3.0,
941,276,215,17,0.52,2.42,9.15,-0.01,-0.02,-0.0,29.66,3.0,
941,276,215,18,0.48,2.49,9.14,-0.01,-0.02,0.0,29.57,3.0,
941,276,215,19,0.51,2.49,9.12,-0.01,-0.01,-0.0,29.66,3.0,
942,249,186,0,0.45,2.49,9.16,-0.01,-0.02,0.0,29.66,3.0,
942,249,186,1,0.45,2.48,9.12,-0.01,-0.01,0.0,29.66,3.0,
942,249,186,2,0.49,2.48,9.27,-0.01,-0.01,0.0,29.66,3.0,
942,249,186,3,0.46,2.42,9.09,-0.02,-0.01,0.0,29.66,3.0,
942,249,186,4,0.44,2.46,9.07,-0.01,-0.02,-0.0,29.66,3.0,
942,249,186,5,0.5,2.48,9.18,-0.01,-0.01,-0.0,29.75,3.0,
942,249,186,6,0.48,2.52,9.16,-0.01,-0.01,-0.0,29.57,3.0,
942,249,186,7,0.45,2.51,9.17,-0.01,-0.01,0.0,29.61,3.0,
942,249,186,8,0.49,2.46,9.15,-0.01,-0.02,0.0,29.61,3.0,
942,249,186,9,0.45,2.55,9.11,-0.01,-0.01,0.0,29.61,3.0,
942,249,186,10,0.51,2.45,9.09,-0.01,-0.02,0.0,29.61,3.0,
942,249,186,11,0.45,2.5,9.12,-0.01,-0.02,0.0,29.71,3.0,
942,249,186,12,0.46,2.48,9.19,-0.01,-0.01,-0.0,29.57,3.0,
942,249,186,13,0.48,2.51,9.2,-0.01,-0.01,0.0,29.57,3.0,
942,249,186,14,0.49,2.47,9.21,-0.01,-0.02,-0.0,29.75,3.0,
942,249,186,15,0.45,2.45,9.16,-0.01,-0.02,0.0,29.75,3.0,
942,249,186,16,0.46,2.49,9.17,-0.01,-0.02,0.0,29.75,3.0,
942,249,186,17,0.46,2.51,9.14,-0.01,-0.02,0.0,29.61,3.0,
942,249,186,18,0.46,2.53,9.22,-0.01,-0.02,0.0,29.61,3.0,
942,249,186,19,0.46,2.55,9.16,-0.01,-0.01,0.0,29.66,2.0,
943,274,213,0,0.42,2.47,9.2,-0.02,-0.02,0.0,29.57,3.0,
943,274,213,1,0.5,2.51,9.17,-0.01,-0.01,0.0,29.66,3.0,
943,274,213,2,0.48,2.47,9.15,-0.01,-0.02,-0.0,29.75,3.0,
943,274,213,3,0.49,2.47,9.14,-0.01,-0.01,0.0,29.66,3.0,
943,274,213,4,0.47,2.54,9.11,-0.01,-0.02,-0.0,29.71,3.0,
943,274,213,5,0.43,2.53,9.16,-0.01,-0.01,0.0,29.61,3.0,
943,274,213,6,0.45,2.47,9.14,-0.01,-0.02,-0.0,29.71,3.0,
943,274,213,7,0.44,2.54,9.09,-0.01,-0.01,-0.0,29.61,3.0,
943,274,213,8,0.48,2.5,9.19,-0.01,-0.01,0.0,29.66,3.0,
943,274,213,9,0.46,2.54,9.14,-0.01,-0.01,0.0,29.61,3.0,
943,274,213,10,0.52,2.55,9.1,-0.01,-0.01,-0.0,29.66,3.0,
943,274,213,11,0.44,2.45,9.11,-0.01,-0.01,-0.0,29.66,3.0,
943,274,213,12,0.47,2.44,9.15,-0.01,-0.02,0.0,29.66,3.0,
943,274,213,13,0.47,2.53,9.2,-0.01,-0.02,-0.0,29.57,3.0,
943,274,213,14,0.48,2.46,9.1,-0.01,-0.01,0.0,29.57,3.0,
943,274,213,15,0.52,2.45,9.17,-0.01,-0.01,-0.0,29.66,3.0,
943,274,213,16,0.5,2.49,9.14,-0.01,-0.01,0.0,29.71,3.0,
943,274,213,17,0.49,2.49,9.2,-0.01,-0.01,0.0,29.61,3.0,
943,274,213,18,0.46,2.47,9.11,-0.01,-0.01,-0.0,29.71,3.0,
943,274,213,19,0.45,2.5,9.15,-0.01,-0.01,0.0,29.71,3.0,
944,262,200,0,0.44,2.52,9.14,-0.01,-0.02,0.0,29.66,3.0,
944,262,200,1,0.45,2.58,9.11,-0.01,-0.01,-0.0,29.61,3.0,
944,262,200,2,0.46,2.45,9.1,-0.01,-0.01,0.0,29.61,3.0,
944,262,200,3,0.49,2.46,9.19,-0.01,-0.02,-0.0,29.71,3.0,
944,262,200,4,0.42,2.5,9.14,-0.01,-0.01,0.01,29.61,3.0,
944,262,200,5,0.47,2.45,9.12,-0.01,-0.01,0.0,29.66,3.0,
944,262,200,6,0.48,2.47,9.13,-0.01,-0.01,0.0,29.75,3.0,
944,262,200,7,0.49,2.48,9.12,-0.01,-0.01,0.0,29.57,3.0,
944,262,200,8,0.5,2.46,9.08,-0.01,-0.01,0.0,29.66,3.0,
944,262,200,9,0.48,2.56,9.09,-0.01,-0.01,-0.0,29.71,3.0,
944,262,200,10,0.46,2.43,9.11,-0.01,-0.01,-0.0,29.61,3.0,
944,262,200,11,0.43,2.43,9.18,-0.01,-0.02,-0.0,29.61,3.0,
944,262,200,12,0.49,2.47,9.08,-0.01,-0.01,-0.0,29.61,3.0,
944,262,200,13,0.41,2.5,9.12,-0.01,-0.01,-0.0,29.71,3.0,
944,262,200,14,0.46,2.43,9.12,-0.01,-0.01,-0.0,29.61,3.0,
944,262,200,15,0.47,2.49,9.08,-0.01,-0.02,0.0,29.57,3.0,
944,262,200,16,0.48,2.53,9.15,-0.01,-0.01,0.0,29.66,3.0,
944,262,200,17,0.47,2.5,9.11,-0.01,-0.02,0.0,29.66,3.0,
944,262,200,18,0.41,2.48,9.22,-0.01,-0.01,-0.0,29.57,3.0,
944,262,200,19,0.47,2.45,9.17,-0.01,-0.01,0.0,29.66,3.0,
945,338,276,0,0.47,2.47,9.06,-0.01,-0.01,-0.0,29.57,3.0,
945,338,276,1,0.49,2.47,9.11,-0.02,-0.02,0.0,29.71,3.0,
945,338,276,2,0.47,2.57,9.15,-0.01,-0.01,-0.0,29.52,3.0,
945,338,276,3,0.49,2.57,9.19,-0.01,-0.01,0.0,29.57,3.0,
945,338,276,4,0.46,2.5,9.11,-0.01,-0.02,0.0,29.57,3.0,
945,338,276,5,0.51,2.49,9.2,-0.01,-0.01,-0.0,29.66,3.0,
945,338,276,6,0.51,2.48,9.12,-0.01,-0.02,0.0,29.66,3.0,
945,338,276,7,0.46,2.46,9.1,-0.01,-0.01,-0.0,29.57,3.0,
945,338,276,8,0.51,2.51,9.11,-0.01,-0.02,0.0,29.61,3.0,
945,338,276,9,0.49,2.49,9.16,-0.01,-0.01,-0.0,29.61,3.0,
945,338,276,10,0.47,2.53,9.12,-0.01,-0.01,0.0,29.52,3.0,
945,338,276,11,0.47,2.51,9.12,-0.01,-0.02,-0.0,29.66,3.0,
945,338,276,12,0.49,2.54,9.13,-0.01,-0.01,0.0,29.66,3.0,
945,338,276,13,0.48,2.51,9.13,-0.01,-0.01,0.0,29.66,3.0,
945,338,276,14,0.51,2.46,9.22,-0.01,-0.01,0.0,29.57,3.0,
945,338,276,15,0.44,2.47,9.16,-0.01,-0.02,0.0,29.66,3.0,
945,338,276,16,0.47,2.5,9.18,-0.01,-0.01,0.0,29.66,3.0,
945,338,276,17,0.42,2.48,9.16,-0.01,-0.02,0.0,29.57,3.0,
945,338,276,18,0.45,2.5,9.12,-0.01,-0.01,-0.0,29.75,3.0,
945,338,276,19,0.52,2.47,9.16,-0.01,-0.01,-0.0,29.61,3.0,
946,304,242,0,0.45,2.48,9.13,-0.01,-0.02,-0.0,29.71,3.0,
946,304,242,1,0.51,2.47,9.16,-0.01,-0.01,0.0,29.61,3.0,
946,304,242,2,0.43,2.56,9.17,-0.01,-0.01,-0.0,29.52,3.0,
946,304,242,3,0.44,2.5,9.2,-0.01,-0.01,0.0,29.61,3.0,
946,304,242,4,0.41,2.52,9.15,-0.01,-0.01,-0.0,29.61,3.0,
946,304,242,5,0.47,2.51,9.15,-0.01,-0.02,0.0,29.61,3.0,
946,304,242,6,0.51,2.49,9.14,-0.01,-0.02,0.0,29.71,3.0,
946,304,242,7,0.43,2.49,9.15,-0.01,-0.02,0.0,29.66,3.0,
946,304,242,8,0.45,2.51,9.12,-0.01,-0.01,0.0,29.66,3.0,
946,304,242,9,0.44,2.48,9.07,-0.01,-0.01,0.0,29.57,3.0,
946,304,242,10,0.49,2.53,9.12,-0.01,-0.02,0.0,29.57,3.0,
946,304,242,11,0.54,2.46,9.07,-0.02,-0.01,-0.0,29.66,3.0,
946,304,242,12,0.47,2.5,9.12,-0.01,-0.01,0.0,29.61,3.0,
946,304,242,13,0.5,2.49,9.21,-0.01,-0.02,0.0,29.71,3.0,
946,304,242,14,0.44,2.52,9.14,-0.01,-0.02,0.0,29.61,3.0,
946,304,242,15,0.45,2.44,9.2,-0.01,-0.02,0.0,29.61,3.0,
946,304,242,16,0.54,2.5,9.15,-0.01,-0.02,0.0,29.61,3.0,
946,304,242,17,0.51,2.52,9.13,-0.01,-0.01,-0.0,29.66,3.0,
946,304,242,18,0.43,2.5,9.11,-0.01,-0.01,0.0,29.66,3.0,
946,304,242,19,0.44,2.49,9.15,-0.01,-0.02,0.0,29.75,3.0,
947,260,199,0,0.5,2.49,9.21,-0.01,-0.01,-0.0,29.66,3.0,
947,260,199,1,0.51,2.49,9.1,-0.01,-0.02,-0.0,29.66,3.0,
947,260,199,2,0.49,2.45,9.12,-0.01,-0.01,0.0,29.47,3.0,
947,260,199,3,0.49,2.45,9.1,-0.01,-0.01,0.0,29.66,3.0,
947,260,199,4,0.46,2.44,9.15,-0.01,-0.02,-0.0,29.66,3.0,
947,260,199,5,0.46,2.55,9.14,-0.01,-0.01,-0.0,29.57,3.0,
947,260,199,6,0.48,2.48,9.06,-0.01,-0.02,0.0,29.61,3.0,
947,260,199,7,0.47,2.54,9.13,-0.01,-0.01,-0.0,29.61,3.0,
947,260,199,8,0.53,2.48,9.13,-0.01,-0.01,-0.0,29.61,3.0,
947,260,199,9,0.48,2.54,9.13,-0.01,-0.02,-0.0,29.66,3.0,
947,260,199,10,0.47,2.51,9.16,-0.01,-0.01,0.0,29.57,3.0,
947,260,199,11,0.44,2.46,9.22,-0.01,-0.01,-0.0,29.66,3.0,
947,260,199,12,0.46,2.46,9.13,-0.01,-0.02,0.0,29.66,3.0,
947,260,199,13,0.48,2.53,9.05,-0.01,-0.01,0.0,29.71,3.0,
947,260,199,14,0.48,2.54,9.17,-0.01,-0.01,0.0,29.61,3.0,
947,260,199,15,0.45,2.56,9.04,-0.01,-0.01,-0.0,29.61,3.0,
947,260,199,16,0.45,2.48,9.08,-0.01,-0.01,0.0,29.61,3.0,
947,260,199,17,0.5,2.5,9.08,-0.01,-0.02,0.0,29.71,3.0,
947,260,199,18,0.55,2.45,9.03,-0.01,-0.02,0.0,29.61,3.0,
947,260,199,19,0.44,2.45,9.08,-0.01,-0.01,-0.0,29.57,3.0,
948,291,229,0,0.44,2.51,9.2,-0.01,-0.02,-0.0,29.61,3.0,
948,291,229,1,0.5,2.52,9.16,-0.01,-0.02,-0.0,29.66,3.0,
948,291,229,2,0.42,2.53,9.11,-0.01,-0.01,0.0,29.57,3.0,
948,291,229,3,0.47,2.49,9.07,-0.01,-0.01,0.0,29.61,3.0,
948,291,229,4,0.49,2.49,9.14,-0.01,-0.01,0.0,29.61,3.0,
948,291,229,5,0.46,2.49,9.19,-0.01,-0.01,0.0,29.61,3.0,
948,291,229,6,0.42,2.52,9.15,-0.01,-0.01,-0.0,29.61,3.0,
948,291,229,7,0.49,2.49,9.14,-0.01,-0.01,0.0,29.61,3.0,
948,291,229,8,0.49,2.49,9.15,-0.01,-0.01,-0.0,29.66,3.0,
948,291,229,9,0.49,2.49,9.08,-0.01,-0.01,0.0,29.57,3.0,
948,291,229,10,0.48,2.5,9.19,-0.01,-0.01,0.0,29.66,3.0,
948,291,229,11,0.49,2.53,9.09,-0.01,-0.02,0.0,29.66,3.0,
948,291,229,12,0.49,2.44,9.18,-0.01,-0.02,0.0,29.66,3.0,
948,291,229,13,0.43,2.49,9.14,-0.01,-0.01,0.0,29.75,3.0,
948,291,229,14,0.47,2.49,9.09,-0.01,-0.02,-0.0,29.71,3.0,
948,291,229,15,0.44,2.49,9.22,-0.01,-0.02,-0.0,29.52,3.0,
948,291,229,16,0.47,2.48,9.12,-0.01,-0.01,-0.0,29.71,3.0,
948,291,229,17,0.44,2.55,9.1,-0.01,-0.01,0.0,29.61,3.0,
948,291,229,18,0.48,2.48,9.12,-0.01,-0.01,0.0,29.66,3.0,
948,291,229,19,0.49,2.51,9.15,-0.01,-0.01,-0.0,29.57,2.0,
949,268,206,0,0.47,2.54,9.05,-0.01,-0.01,-0.0,29.61,3.0,
949,268,206,1,0.47,2.49,9.06,-0.01,-0.01,0.0,29.57,3.0,
949,268,206,2,0.44,2.48,9.08,-0.01,-0.01,0.0,29.61,3.0,
949,268,206,3,0.46,2.53,9.15,-0.01,-0.02,-0.0,29.52,3.0,
949,268,206,4,0.42,2.52,9.16,-0.01,-0.01,0.0,29.61,3.0,
949,268,206,5,0.48,2.51,9.15,-0.01,-0.01,-0.0,29.57,3.0,
949,268,206,6,0.43,2.46,9.14,-0.01,-0.01,-0.0,29.57,3.0,
949,268,206,7,0.45,2.5,9.2,-0.01,-0.02,0.0,29.57,3.0,
949,268,206,8,0.47,2.49,9.14,-0.02,-0.02,0.0,29.57,3.0,
949,268,206,9,0.49,2.49,9.14,-0.01,-0.01,0.0,29.66,3.0,
949,268,206,10,0.52,2.5,9.18,-0.01,-0.02,-0.0,29.61,3.0,
949,268,206,11,0.45,2.52,9.18,-0.01,-0.01,0.0,29.61,3.0,
949,268,206,12,0.47,2.53,9.12,-0.01,-0.01,0.0,29.52,3.0,
949,268,206,13,0.47,2.51,9.1,-0.01,-0.01,0.0,29.52,3.0,
949,268,206,14,0.47,2.5,9.12,-0.01,-0.01,0.0,29.61,3.0,
949,268,206,15,0.49,2.5,9.11,-0.01,-0.02,0.0,29.57,3.0,
949,268,206,16,0.45,2.51,9.21,-0.01,-0.01,0.0,29.66,3.0,
949,268,206,17,0.5,2.53,9.18,-0.01,-0.01,0.0,29.57,3.0,
949,268,206,18,0.45,2.49,9.11,-0.01,-0.02,-0.0,29.66,3.0,
949,268,206,19,0.47,2.53,9.19,-0.01,-0.01,-0.0,29.57,3.0,
950,1690,1629,0,0.47,2.54,9.05,-0.01,-0.01,-0.0,29.61,3.0,
950,1690,1629,1,0.47,2.49,9.06,-0.01,-0.01,0.0,29.57,3.0,
950,1690,1629,2,0.44,2.48,9.08,-0.01,-0.01,0.0,29.61,3.0,
950,1690,1629,3,0.46,2.53,9.15,-0.01,-0.02,-0.0,29.52,3.0,
950,1690,1629,4,0.42,2.52,9.16,-0.01,-0.01,0.0,29.61,3.0,
950,1690,1629,5,0.48,2.51,9.15,-0.01,-0.01,-0.0,29.57,3.0,
950,1690,1629,6,0.43,2.46,9.14,-0.01,-0.01,-0.0,29.57,3.0,
950,1690,1629,7,0.45,2.5,9.2,-0.01,-0.02,0.0,29.57,3.0,
950,1690,1629,8,0.47,2.49,9.14,-0.02,-0.02,0.0,29.57,3.0,
950,1690,1629,9,0.49,2.49,9.14,-0.01,-0.01,0.0,29.66,3.0,
950,1690,1629,10,0.52,2.5,9.18,-0.01,-0.02,-0.0,29.61,3.0,
950,1690,1629,11,0.45,2.52,9.18,-0.01,-0.01,0.0,29.61,3.0,
950,1690,1629,12,0.47,2.53,9.12,-0.01,-0.01,0.0,29.52,3.0,
950,1690,1629,13,0.47,2.51,9.1,-0.01,-0.01,0.0,29.52,3.0,
950,1690,1629,14,0.47,2.5,9.12,-0.01,-0.01,0.0,29.61,3.0,
950,1690,1629,15,0.49,2.5,9.11,-0.01,-0.02,0.0,29.57,3.0,
950,1690,1629,16,0.45,2.51,9.21,-0.01,-0.01,0.0,29.66,3.0,
950,1690,1629,17,0.5,2.53,9.18,-0.01,-0.01,0.0,29.57,3.0,
950,1690,1629,18,0.45,2.49,9.11,-0.01,-0.02,-0.0,29.66,3.0,
950,1690,1629,19,0.47,2.53,9.19,-0.01,-0.01,-0.0,29.57,3.0,
951,257,196,0,0.49,2.48,9.14,-0.01,-0.02,0.0,29.66,3.0,
951,257,196,1,0.49,2.5,9.11,-0.01,-0.02,0.0,29.52,3.0,
951,257,196,2,0.52,2.5,9.1,-0.01,-0.01,0.0,29.52,3.0,
951,257,196,3,0.49,2.46,9.16,-0.01,-0.02,-0.0,29.52,3.0,
951,257,196,4,0.47,2.48,9.19,-0.01,-0.01,0.0,29.57,3.0,
951,257,196,5,0.42,2.47,9.16,-0.01,-0.01,0.0,29.57,3.0,
951,257,196,6,0.52,2.52,9.14,-0.01,-0.01,0.0,29.57,3.0,
951,257,196,7,0.48,2.47,9.21,-0.01,-0.02,-0.0,29.66,3.0,
951,257,196,8,0.48,2.49,9.17,-0.01,-0.01,0.0,29.61,3.0,
951,257,196,9,0.51,2.47,9.09,-0.01,-0.02,0.0,29.61,3.0,
951,257,196,10,0.52,2.53,9.15,-0.01,-0.01,0.0,29.52,3.0,
951,257,196,11,0.45,2.52,9.18,-0.01,-0.01,0.0,29.71,3.0,
951,257,196,12,0.5,2.53,9.21,-0.01,-0.01,0.0,29.61,3.0,
951,257,196,13,0.53,2.5,9.11,-0.01,-0.01,0.0,29.66,3.0,
951,257,196,14,0.48,2.51,9.07,-0.01,-0.02,0.0,29.57,3.0,
951,257,196,15,0.44,2.5,9.14,-0.01,-0.01,-0.0,29.57,3.0,
951,257,196,16,0.51,2.54,9.18,-0.01,-0.01,-0.0,29.57,3.0,
951,257,196,17,0.46,2.46,9.17,-0.01,-0.02,0.0,29.57,3.0,
951,257,196,18,0.49,2.51,9.16,-0.01,-0.01,0.0,29.57,3.0,
951,257,196,19,0.5,2.53,9.13,-0.01,-0.01,-0.0,29.61,3.0,
952,275,214,0,0.47,2.47,9.16,-0.01,-0.02,0.0,29.57,4.0,
952,275,214,1,0.48,2.48,9.17,-0.02,-0.01,0.0,29.47,3.0,
952,275,214,2,0.51,2.47,9.17,-0.01,-0.02,-0.0,29.66,3.0,
952,275,214,3,0.46,2.52,9.1,-0.01,-0.01,-0.0,29.57,3.0,
952,275,214,4,0.54,2.48,9.09,-0.01,-0.01,0.0,29.57,2.0,
952,275,214,5,0.47,2.43,9.08,-0.01,-0.01,0.0,29.52,2.0,
952,275,214,6,0.43,2.52,9.17,-0.01,-0.02,-0.0,29.61,2.0,
952,275,214,7,0.47,2.5,9.18,-0.01,-0.01,0.0,29.61,3.0,
952,275,214,8,0.48,2.55,9.11,-0.02,-0.02,-0.0,29.61,3.0,
952,275,214,9,0.43,2.47,9.11,-0.01,-0.02,0.0,29.47,3.0,
952,275,214,10,0.44,2.47,9.12,-0.01,-0.01,-0.0,29.66,3.0,
952,275,214,11,0.46,2.49,9.13,-0.01,-0.01,-0.0,29.57,3.0,
952,275,214,12,0.5,2.47,9.14,-0.01,-0.02,-0.0,29.52,3.0,
952,275,214,13,0.46,2.48,9.14,-0.01,-0.02,-0.0,29.61,3.0,
952,275,214,14,0.46,2.51,9.18,-0.01,-0.01,0.0,29.57,3.0,
952,275,214,15,0.45,2.49,9.09,-0.01,-0.02,0.0,29.57,3.0,
952,275,214,16,0.5,2.45,9.1,-0.01,-0.01,0.0,29.57,3.0,
952,275,214,17,0.46,2.52,9.22,-0.01,-0.01,0.0,29.66,3.0,
952,275,214,18,0.48,2.49,9.13,-0.01,-0.02,-0.0,29.47,3.0,
952,275,214,19,0.43,2.51,9.18,-0.01,-0.01,0.0,29.47,3.0,
953,271,209,0,0.44,2.55,9.22,-0.01,-0.01,0.0,29.61,3.0,
953,271,209,1,0.45,2.47,9.19,-0.01,-0.02,0.0,29.66,3.0,
953,271,209,2,0.49,2.5,9.15,-0.01,-0.01,0.0,29.57,3.0,
953,271,209,3,0.46,2.52,9.17,-0.01,-0.01,0.0,29.52,3.0,
953,271,209,4,0.49,2.47,9.14,-0.01,-0.02,-0.0,29.52,3.0,
953,271,209,5,0.52,2.5,9.2,-0.01,-0.01,-0.0,29.61,3.0,
953,271,209,6,0.46,2.51,9.19,-0.01,-0.02,0.0,29.52,3.0,
953,271,209,7,0.5,2.46,9.16,-0.01,-0.01,0.0,29.57,3.0,
953,271,209,8,0.43,2.47,9.12,-0.01,-0.01,0.0,29.66,3.0,
953,271,209,9,0.49,2.45,9.11,-0.01,-0.02,-0.0,29.57,3.0,
953,271,209,10,0.45,2.49,9.1,-0.01,-0.01,0.0,29.57,3.0,
953,271,209,11,0.46,2.43,9.11,-0.01,-0.01,0.0,29.57,3.0,
953,271,209,12,0.45,2.5,9.05,-0.01,-0.02,-0.0,29.61,3.0,
953,271,209,13,0.47,2.49,9.16,-0.01,-0.01,-0.0,29.61,3.0,
953,271,209,14,0.43,2.52,9.18,-0.01,-0.01,0.0,29.52,3.0,
953,271,209,15,0.51,2.49,9.16,-0.01,-0.02,-0.0,29.52,3.0,
953,271,209,16,0.48,2.45,9.15,-0.01,-0.01,0.0,29.57,3.0,
953,271,209,17,0.48,2.41,9.19,-0.01,-0.02,0.0,29.57,3.0,
953,271,209,18,0.46,2.46,9.11,-0.01,-0.01,-0.0,29.57,3.0,
953,271,209,19,0.4,2.54,9.12,-0.01,-0.01,0.01,29.57,3.0,
954,274,212,0,0.49,2.51,9.16,-0.01,-0.02,-0.0,29.61,3.0,
954,274,212,1,0.48,2.45,9.12,-0.01,-0.01,0.0,29.57,3.0,
954,274,212,2,0.51,2.47,9.12,-0.01,-0.02,-0.0,29.57,3.0,
954,274,212,3,0.46,2.46,9.16,-0.01,-0.02,0.0,29.61,3.0,
954,274,212,4,0.46,2.49,9.17,-0.01,-0.02,-0.0,29.61,3.0,
954,274,212,5,0.51,2.5,9.17,-0.01,-0.01,-0.0,29.57,3.0,
954,274,212,6,0.49,2.5,9.08,-0.01,-0.02,0.0,29.57,3.0,
954,274,212,7,0.47,2.53,9.12,-0.01,-0.01,0.0,29.57,3.0,
954,274,212,8,0.46,2.5,9.18,-0.01,-0.01,-0.0,29.57,3.0,
954,274,212,9,0.46,2.49,9.15,-0.01,-0.01,-0.0,29.66,3.0,
954,274,212,10,0.44,2.47,9.21,-0.01,-0.02,0.0,29.57,3.0,
954,274,212,11,0.49,2.49,9.15,-0.01,-0.02,0.0,29.57,3.0,
954,274,212,12,0.49,2.5,9.19,-0.01,-0.02,-0.0,29.52,3.0,
954,274,212,13,0.41,2.45,9.11,-0.01,-0.02,-0.0,29.61,3.0,
954,274,212,14,0.47,2.48,9.21,-0.01,-0.01,-0.0,29.61,3.0,
954,274,212,15,0.46,2.49,9.15,-0.01,-0.02,0.0,29.52,3.0,
954,274,212,16,0.46,2.5,9.11,-0.01,-0.02,0.0,29.52,3.0,
954,274,212,17,0.42,2.53,9.11,-0.01,-0.01,-0.0,29.52,3.0,
954,274,212,18,0.46,2.5,9.15,-0.01,-0.02,0.0,29.52,3.0,
954,274,212,19,0.44,2.4,9.18,-0.01,-0.01,0.0,29.57,3.0,
955,269,206,0,0.45,2.47,9.16,-0.01,-0.01,-0.0,29.52,3.0,
955,269,206,1,0.44,2.41,9.11,-0.01,-0.02,0.0,29.57,3.0,
955,269,206,2,0.48,2.48,9.15,-0.01,-0.01,0.0,29.57,3.0,
955,269,206,3,0.44,2.51,9.13,-0.01,-0.02,0.0,29.57,3.0,
955,269,206,4,0.43,2.51,9.15,-0.01,-0.01,-0.0,29.61,3.0,
955,269,206,5,0.44,2.51,9.14,-0.01,-0.01,0.0,29.42,3.0,
955,269,206,6,0.45,2.5,9.14,-0.01,-0.01,-0.0,29.61,3.0,
955,269,206,7,0.47,2.46,9.1,-0.01,-0.02,0.0,29.52,3.0,
955,269,206,8,0.47,2.51,9.15,-0.01,-0.02,-0.0,29.57,3.0,
955,269,206,9,0.49,2.49,9.14,-0.01,-0.02,0.0,29.66,3.0,
955,269,206,10,0.48,2.52,9.13,-0.01,-0.01,-0.0,29.57,3.0,
955,269,206,11,0.48,2.53,9.09,-0.01,-0.01,-0.0,29.61,3.0,
955,269,206,12,0.47,2.46,9.21,-0.01,-0.01,0.0,29.61,3.0,
955,269,206,13,0.41,2.39,9.19,-0.01,-0.02,0.0,29.61,3.0,
955,269,206,14,0.45,2.47,9.13,-0.01,-0.01,-0.0,29.57,2.0,
955,269,206,15,0.46,2.55,9.18,-0.01,-0.01,0.0,29.57,2.0,
955,269,206,16,0.47,2.49,9.14,-0.01,-0.02,-0.0,29.57,3.0,
955,269,206,17,0.44,2.5,9.15,-0.01,-0.02,0.0,29.57,3.0,
955,269,206,18,0.48,2.56,9.14,-0.01,-0.01,-0.0,29.57,3.0,
955,269,206,19,0.47,2.51,9.15,-0.01,-0.01,0.0,29.52,3.0,
956,273,212,0,0.46,2.56,9.25,-0.01,-0.01,-0.0,29.61,3.0,
956,273,212,1,0.44,2.47,9.2,-0.01,-0.02,0.0,29.61,3.0,
956,273,212,2,0.43,2.48,9.05,-0.01,-0.01,0.0,29.61,3.0,
956,273,212,3,0.46,2.48,9.15,-0.01,-0.01,-0.0,29.52,3.0,
956,273,212,4,0.48,2.51,9.15,-0.01,-0.02,0.0,29.57,3.0,
956,273,212,5,0.45,2.52,9.23,-0.01,-0.01,-0.0,29.57,3.0,
956,273,212,6,0.48,2.5,9.13,-0.01,-0.01,0.0,29.66,3.0,
956,273,212,7,0.43,2.49,9.1,-0.01,-0.02,-0.0,29.57,3.0,
956,273,212,8,0.5,2.5,9.15,-0.01,-0.01,0.0,29.61,3.0,
956,273,212,9,0.42,2.44,9.08,-0.01,-0.02,0.0,29.52,3.0,
956,273,212,10,0.44,2.46,9.16,-0.01,-0.01,0.0,29.57,3.0,
956,273,212,11,0.48,2.49,9.08,-0.01,-0.02,0.0,29.47,3.0,
956,273,212,12,0.46,2.45,9.2,-0.01,-0.02,0.0,29.57,3.0,
956,273,212,13,0.42,2.49,9.13,-0.02,-0.01,0.0,29.57,3.0,
956,273,212,14,0.45,2.46,9.16,-0.01,-0.01,-0.0,29.66,3.0,
956,273,212,15,0.49,2.49,9.14,-0.01,-0.01,0.0,29.47,3.0,
956,273,212,16,0.42,2.48,9.16,-0.01,-0.02,0.0,29.52,3.0,
956,273,212,17,0.47,2.47,9.17,-0.01,-0.01,0.0,29.61,3.0,
956,273,212,18,0.43,2.43,9.21,-0.01,-0.01,-0.0,29.52,3.0,
956,273,212,19,0.47,2.45,9.1,-0.02,-0.01,0.0,29.52,3.0,
957,270,208,0,0.44,2.49,9.17,-0.01,-0.01,-0.0,29.47,4.0,
957,270,208,1,0.53,2.49,9.12,-0.01,-0.01,-0.0,29.52,3.0,
957,270,208,2,0.5,2.55,9.15,-0.01,-0.02,0.0,29.61,3.0,
957,270,208,3,0.45,2.51,9.09,-0.01,-0.01,0.0,29.57,2.0,
957,270,208,4,0.42,2.47,9.14,-0.01,-0.01,-0.0,29.57,2.0,
957,270,208,5,0.42,2.53,9.13,-0.01,-0.02,-0.0,29.66,2.0,
957,270,208,6,0.49,2.48,9.16,-0.01,-0.02,0.0,29.47,3.0,
957,270,208,7,0.52,2.47,9.15,-0.01,-0.01,0.0,29.57,3.0,
957,270,208,8,0.5,2.49,9.16,-0.01,-0.01,0.0,29.57,3.0,
957,270,208,9,0.47,2.49,9.11,-0.01,-0.02,0.0,29.61,3.0,
957,270,208,10,0.48,2.46,9.14,-0.01,-0.02,-0.0,29.52,3.0,
957,270,208,11,0.48,2.52,9.22,-0.01,-0.02,0.0,29.61,3.0,
957,270,208,12,0.47,2.49,9.17,-0.01,-0.02,0.0,29.61,3.0,
957,270,208,13,0.47,2.51,9.15,-0.01,-0.01,0.0,29.57,3.0,
957,270,208,14,0.43,2.49,9.08,-0.01,-0.01,-0.0,29.57,3.0,
957,270,208,15,0.43,2.52,9.23,-0.01,-0.02,-0.0,29.57,3.0,
957,270,208,16,0.51,2.49,9.13,-0.01,-0.02,0.0,29.61,3.0,
957,270,208,17,0.44,2.55,9.17,-0.01,-0.02,-0.0,29.61,3.0,
957,270,208,18,0.44,2.51,9.19,-0.01,-0.01,-0.0,29.52,3.0,
957,270,208,19,0.47,2.52,9.12,-0.01,-0.02,-0.0,29.61,3.0,
958,287,226,0,0.49,2.46,9.18,-0.01,-0.01,0.0,29.57,3.0,
958,287,226,1,0.49,2.51,9.13,-0.01,-0.01,0.0,29.52,3.0,
958,287,226,2,0.56,2.53,9.19,-0.01,-0.02,0.0,29.57,3.0,
958,287,226,3,0.45,2.52,9.17,-0.01,-0.02,-0.0,29.57,3.0,
958,287,226,4,0.48,2.49,9.21,-0.01,-0.02,0.0,29.57,3.0,
958,287,226,5,0.46,2.48,9.28,-0.01,-0.01,0.0,29.61,3.0,
958,287,226,6,0.46,2.49,9.13,-0.01,-0.01,0.0,29.52,3.0,
958,287,226,7,0.49,2.49,9.13,-0.01,-0.01,-0.0,29.61,3.0,
958,287,226,8,0.48,2.48,9.2,-0.01,-0.02,-0.0,29.66,3.0,
958,287,226,9,0.49,2.46,9.19,-0.02,-0.02,-0.0,29.57,3.0,
958,287,226,10,0.45,2.55,9.18,-0.01,-0.01,0.0,29.47,3.0,
958,287,226,11,0.47,2.55,9.15,-0.01,-0.01,0.0,29.57,3.0,
958,287,226,12,0.48,2.46,9.16,-0.01,-0.02,0.01,29.57,3.0,
958,287,226,13,0.48,2.47,9.18,-0.01,-0.02,0.0,29.57,3.0,
958,287,226,14,0.55,2.47,9.17,-0.01,-0.01,-0.0,29.57,3.0,
958,287,226,15,0.47,2.45,9.14,-0.01,-0.01,-0.0,29.57,3.0,
958,287,226,16,0.51,2.45,9.09,-0.01,-0.01,0.0,29.52,3.0,
958,287,226,17,0.49,2.45,9.19,-0.01,-0.01,0.0,29.61,3.0,
958,287,226,18,0.51,2.51,9.14,-0.01,-0.02,0.0,29.52,3.0,
958,287,226,19,0.47,2.49,9.14,-0.01,-0.02,-0.0,29.52,3.0,
959,267,206,0,0.49,2.51,9.07,-0.01,-0.01,0.0,29.47,4.0,
959,267,206,1,0.45,2.49,9.05,-0.01,-0.02,-0.0,29.52,2.0,
959,267,206,2,0.48,2.56,9.08,-0.01,-0.01,0.0,29.52,2.0,
959,267,206,3,0.48,2.51,9.14,-0.01,-0.02,-0.0,29.57,3.0,
959,267,206,4,0.52,2.5,9.12,-0.01,-0.02,0.0,29.57,3.0,
959,267,206,5,0.45,2.48,9.09,-0.01,-0.01,0.0,29.66,3.0,
959,267,206,6,0.46,2.49,9.16,-0.01,-0.01,-0.0,29.57,3.0,
959,267,206,7,0.45,2.53,9.15,-0.01,-0.01,-0.0,29.66,3.0,
959,267,206,8,0.45,2.54,9.19,-0.01,-0.01,0.0,29.52,3.0,
959,267,206,9,0.5,2.55,9.14,-0.01,-0.01,0.0,29.61,3.0,
959,267,206,10,0.44,2.48,9.07,-0.02,-0.01,0.0,29.52,3.0,
959,267,206,11,0.48,2.53,9.17,-0.01,-0.01,-0.0,29.61,3.0,
959,267,206,12,0.49,2.57,9.16,-0.02,-0.01,-0.0,29.38,3.0,
959,267,206,13,0.48,2.52,9.22,-0.01,-0.02,0.0,29.57,3.0,
959,267,206,14,0.46,2.45,9.12,-0.01,-0.02,-0.0,29.57,3.0,
959,267,206,15,0.41,2.49,9.23,-0.01,-0.01,-0.0,29.47,3.0,
959,267,206,16,0.48,2.5,9.16,-0.01,-0.02,0.0,29.47,3.0,
959,267,206,17,0.46,2.43,9.16,-0.01,-0.01,0.0,29.57,3.0,
959,267,206,18,0.54,2.49,9.15,-0.01,-0.02,0.0,29.52,3.0,
959,267,206,19,0.48,2.53,9.2,-0.01,-0.02,0.0,29.52,3.0,
960,266,205,0,0.47,2.46,9.14,-0.01,-0.02,-0.0,29.52,4.0,
960,266,205,1,0.52,2.46,9.14,-0.01,-0.01,0.0,29.66,3.0,
960,266,205,2,0.45,2.48,9.09,-0.01,-0.01,0.0,29.57,3.0,
960,266,205,3,0.5,2.51,9.14,-0.01,-0.01,-0.0,29.66,2.0,
960,266,205,4,0.5,2.52,9.19,-0.01,-0.01,-0.0,29.52,2.0,
960,266,205,5,0.47,2.52,9.19,-0.01,-0.01,0.0,29.61,3.0,
960,266,205,6,0.47,2.53,9.18,-0.01,-0.02,-0.0,29.52,3.0,
960,266,205,7,0.46,2.48,9.16,-0.01,-0.02,-0.0,29.61,3.0,
960,266,205,8,0.43,2.49,9.1,-0.01,-0.02,0.0,29.57,3.0,
960,266,205,9,0.46,2.48,9.19,-0.01,-0.01,0.0,29.57,3.0,
960,266,205,10,0.48,2.48,9.1,-0.01,-0.02,-0.0,29.57,3.0,
960,266,205,11,0.45,2.52,9.15,-0.01,-0.01,-0.0,29.42,3.0,
960,266,205,12,0.46,2.44,9.18,-0.01,-0.02,-0.0,29.61,3.0,
960,266,205,13,0.49,2.44,9.1,-0.01,-0.02,0.0,29.52,3.0,
960,266,205,14,0.51,2.51,9.11,-0.01,-0.02,-0.0,29.52,3.0,
960,266,205,15,0.45,2.48,9.12,-0.01,-0.01,0.0,29.57,3.0,
960,266,205,16,0.5,2.5,9.12,-0.01,-0.02,0.0,29.57,3.0,
960,266,205,17,0.42,2.47,9.08,-0.01,-0.02,0.0,29.57,3.0,
960,266,205,18,0.46,2.52,9.19,-0.01,-0.01,0.0,29.57,3.0,
960,266,205,19,0.46,2.53,9.15,-0.01,-0.02,-0.0,29.57,3.0,
961,281,220,0,0.51,2.53,9.08,-0.01,-0.02,0.0,29.52,4.0,
961,281,220,1,0.5,2.46,9.25,-0.01,-0.02,-0.0,29.47,3.0,
961,281,220,2,0.52,2.53,9.13,-0.01,-0.02,0.0,29.47,2.0,
961,281,220,3,0.43,2.5,9.14,-0.01,-0.01,-0.0,29.52,2.0,
961,281,220,4,0.47,2.5,9.14,-0.01,-0.01,0.0,29.52,3.0,
961,281,220,5,0.54,2.49,9.12,-0.01,-0.02,0.0,29.47,3.0,
961,281,220,6,0.47,2.46,9.14,-0.01,-0.01,0.0,29.57,3.0,
961,281,220,7,0.48,2.46,9.13,-0.01,-0.02,0.0,29.47,3.0,
961,281,220,8,0.55,2.48,9.15,-0.01,-0.01,-0.0,29.66,3.0,
961,281,220,9,0.5,2.56,9.17,-0.01,-0.01,0.0,29.57,3.0,
961,281,220,10,0.48,2.52,9.21,-0.01,-0.02,0.0,29.52,3.0,
961,281,220,11,0.51,2.42,9.11,-0.01,-0.01,-0.0,29.52,3.0,
961,281,220,12,0.52,2.49,9.08,-0.01,-0.02,-0.0,29.52,3.0,
961,281,220,13,0.46,2.44,9.13,-0.01,-0.01,-0.0,29.57,3.0,
961,281,220,14,0.57,2.58,9.22,-0.01,-0.02,0.0,29.47,3.0,
961,281,220,15,0.49,2.5,9.17,-0.01,-0.01,0.0,29.47,3.0,
961,281,220,16,0.53,2.45,9.08,-0.01,-0.01,0.0,29.47,3.0,
961,281,220,17,0.47,2.47,9.17,-0.01,-0.02,0.0,29.66,3.0,
961,281,220,18,0.43,2.5,9.08,-0.01,-0.02,0.0,29.52,3.0,
961,281,220,19,0.44,2.45,9.14,-0.01,-0.01,0.0,29.52,3.0,
962,302,241,0,0.52,2.51,9.19,-0.01,-0.02,0.0,29.47,4.0,
962,302,241,1,0.45,2.48,9.11,-0.01,-0.01,-0.0,29.61,3.0,
962,302,241,2,0.56,2.47,9.07,-0.01,-0.01,0.0,29.61,3.0,
962,302,241,3,0.45,2.5,9.08,-0.01,-0.01,0.0,29.57,3.0,
962,302,241,4,0.48,2.48,9.14,-0.01,-0.02,0.0,29.57,2.0,
962,302,241,5,0.47,2.45,9.16,-0.01,-0.01,-0.0,29.57,2.0,
962,302,241,6,0.45,2.46,9.17,-0.01,-0.01,0.0,29.57,2.0,
962,302,241,7,0.47,2.51,9.11,-0.01,-0.01,-0.0,29.52,3.0,
962,302,241,8,0.48,2.46,9.16,-0.01,-0.01,0.0,29.52,3.0,
962,302,241,9,0.49,2.44,9.18,-0.01,-0.02,-0.0,29.52,3.0,
962,302,241,10,0.5,2.46,9.18,-0.01,-0.01,-0.0,29.57,3.0,
962,302,241,11,0.42,2.45,9.19,-0.01,-0.01,-0.0,29.66,3.0,
962,302,241,12,0.45,2.49,9.23,-0.01,-0.02,0.0,29.57,3.0,
962,302,241,13,0.45,2.43,9.12,-0.01,-0.02,0.0,29.52,3.0,
962,302,241,14,0.46,2.5,9.12,-0.01,-0.02,-0.0,29.61,3.0,
962,302,241,15,0.46,2.49,9.22,-0.01,-0.02,-0.0,29.52,3.0,
962,302,241,16,0.42,2.48,9.14,-0.01,-0.01,0.0,29.42,3.0,
962,302,241,17,0.44,2.47,9.22,-0.01,-0.01,0.0,29.57,3.0,
962,302,241,18,0.45,2.45,9.15,-0.01,-0.01,-0.0,29.47,3.0,
962,302,241,19,0.44,2.43,9.27,-0.01,-0.01,0.0,29.47,3.0,
963,284,222,0,0.5,2.49,9.17,-0.01,-0.02,0.0,29.57,3.0,
963,284,222,1,0.47,2.49,9.21,-0.02,-0.01,-0.0,29.61,3.0,
963,284,222,2,0.41,2.46,9.24,-0.01,-0.01,-0.0,29.57,3.0,
963,284,222,3,0.5,2.5,9.12,-0.01,-0.02,-0.0,29.57,3.0,
963,284,222,4,0.46,2.5,9.32,-0.01,-0.01,-0.0,29.57,3.0,
963,284,222,5,0.51,2.47,9.11,-0.01,-0.01,0.0,29.66,3.0,
963,284,222,6,0.47,2.46,9.19,-0.01,-0.01,0.0,29.38,3.0,
963,284,222,7,0.51,2.49,9.08,-0.01,-0.02,-0.0,29.52,3.0,
963,284,222,8,0.51,2.45,9.11,-0.01,-0.02,0.0,29.52,3.0,
963,284,222,9,0.48,2.52,9.1,-0.01,-0.01,-0.0,29.52,3.0,
963,284,222,10,0.46,2.45,9.18,-0.01,-0.02,0.0,29.52,3.0,
963,284,222,11,0.41,2.5,9.12,-0.01,-0.01,-0.0,29.52,3.0,
963,284,222,12,0.42,2.52,9.11,-0.01,-0.02,0.0,29.66,3.0,
963,284,222,13,0.46,2.49,9.2,-0.01,-0.01,0.0,29.57,3.0,
963,284,222,14,0.46,2.44,9.22,-0.01,-0.01,0.0,29.57,3.0,
963,284,222,15,0.49,2.52,9.09,-0.01,-0.01,-0.0,29.57,3.0,
963,284,222,16,0.48,2.49,9.13,-0.01,-0.01,-0.0,29.57,3.0,
963,284,222,17,0.49,2.46,9.11,-0.01,-0.01,0.0,29.61,3.0,
963,284,222,18,0.49,2.56,9.14,-0.01,-0.01,-0.0,29.61,3.0,
963,284,222,19,0.41,2.49,9.14,-0.01,-0.01,0.0,29.61,3.0,
964,270,208,0,0.47,2.51,9.21,-0.01,-0.01,-0.0,29.52,3.0,
964,270,208,1,0.49,2.51,9.16,-0.01,-0.01,-0.0,29.57,3.0,
964,270,208,2,0.44,2.45,9.21,-0.01,-0.01,-0.0,29.66,3.0,
964,270,208,3,0.47,2.57,9.21,-0.01,-0.01,0.0,29.52,3.0,
964,270,208,4,0.48,2.49,9.16,-0.01,-0.02,0.0,29.61,3.0,
964,270,208,5,0.44,2.5,9.09,-0.01,-0.01,-0.0,29.52,3.0,
964,270,208,6,0.48,2.52,9.14,-0.01,-0.01,0.0,29.57,3.0,
964,270,208,7,0.5,2.47,9.17,-0.01,-0.01,-0.0,29.57,3.0,
964,270,208,8,0.48,2.46,9.17,-0.01,-0.01,-0.0,29.47,3.0,
964,270,208,9,0.48,2.49,9.09,-0.01,-0.01,0.0,29.47,3.0,
964,270,208,10,0.46,2.45,9.08,-0.01,-0.02,-0.0,29.57,3.0,
964,270,208,11,0.47,2.53,9.14,-0.01,-0.01,0.0,29.57,2.0,
964,270,208,12,0.5,2.57,9.08,-0.02,-0.01,0.0,29.52,2.0,
964,270,208,13,0.46,2.46,9.16,-0.01,-0.02,0.0,29.52,2.0,
964,270,208,14,0.46,2.52,9.18,-0.01,-0.02,-0.0,29.42,3.0,
964,270,208,15,0.48,2.45,9.23,-0.02,-0.01,0.0,29.57,3.0,
964,270,208,16,0.48,2.52,9.17,-0.01,-0.01,0.0,29.57,3.0,
964,270,208,17,0.41,2.52,9.12,-0.01,-0.02,-0.0,29.57,3.0,
964,270,208,18,0.45,2.49,9.13,-0.01,-0.02,-0.0,29.57,3.0,
964,270,208,19,0.45,2.45,9.19,-0.01,-0.01,0.0,29.52,3.0,
965,272,211,0,0.55,2.52,9.15,-0.01,-0.01,0.0,29.71,3.0,
965,272,211,1,0.51,2.52,9.17,-0.01,-0.01,0.0,29.57,3.0,
965,272,211,2,0.45,2.48,9.21,-0.01,-0.02,-0.0,29.57,3.0,
965,272,211,3,0.47,2.47,9.14,-0.01,-0.01,-0.0,29.57,3.0,
965,272,211,4,0.48,2.42,9.17,-0.01,-0.02,0.0,29.57,3.0,
965,272,211,5,0.49,2.51,9.12,-0.01,-0.02,-0.0,29.61,3.0,
965,272,211,6,0.45,2.54,9.12,-0.01,-0.01,0.0,29.61,3.0,
965,272,211,7,0.45,2.53,9.15,-0.01,-0.02,0.0,29.61,3.0,
965,272,211,8,0.47,2.54,9.18,-0.01,-0.01,0.0,29.52,3.0,
965,272,211,9,0.42,2.49,9.13,-0.01,-0.01,-0.0,29.52,3.0,
965,272,211,10,0.42,2.49,9.16,-0.01,-0.02,0.0,29.47,3.0,
965,272,211,11,0.44,2.46,9.18,-0.01,-0.01,0.0,29.57,3.0,
965,272,211,12,0.47,2.48,9.13,-0.01,-0.02,0.0,29.47,3.0,
965,272,211,13,0.47,2.43,9.14,-0.01,-0.02,-0.0,29.57,3.0,
965,272,211,14,0.52,2.47,9.1,-0.01,-0.02,-0.0,29.47,3.0,
965,272,211,15,0.51,2.47,9.06,-0.01,-0.02,-0.0,29.52,3.0,
965,272,211,16,0.44,2.51,9.13,-0.01,-0.02,0.0,29.61,3.0,
965,272,211,17,0.43,2.51,9.2,-0.01,-0.02,0.0,29.61,3.0,
965,272,211,18,0.49,2.49,9.1,-0.02,-0.01,0.0,29.52,3.0,
965,272,211,19,0.47,2.47,9.06,-0.02,-0.02,0.0,29.52,3.0,
966,270,208,0,0.51,2.56,9.15,-0.01,-0.01,0.0,29.52,3.0,
966,270,208,1,0.51,2.55,9.2,-0.01,-0.01,-0.0,29.66,3.0,
966,270,208,2,0.46,2.49,9.14,-0.01,-0.01,0.0,29.57,3.0,
966,270,208,3,0.43,2.56,9.13,-0.01,-0.01,-0.0,29.47,3.0,
966,270,208,4,0.5,2.48,9.19,-0.01,-0.02,-0.0,29.57,3.0,
966,270,208,5,0.51,2.46,9.14,-0.02,-0.01,0.0,29.52,3.0,
966,270,208,6,0.46,2.5,9.16,-0.01,-0.01,0.0,29.42,3.0,
966,270,208,7,0.42,2.51,9.14,-0.01,-0.01,0.0,29.57,3.0,
966,270,208,8,0.44,2.46,9.09,-0.01,-0.02,0.0,29.66,3.0,
966,270,208,9,0.51,2.51,9.07,-0.01,-0.01,-0.0,29.57,3.0,
966,270,208,10,0.46,2.51,9.12,-0.01,-0.01,0.0,29.57,2.0,
966,270,208,11,0.42,2.53,9.09,-0.01,-0.02,0.0,29.57,2.0,
966,270,208,12,0.47,2.45,9.18,-0.01,-0.01,0.0,29.52,3.0,
966,270,208,13,0.45,2.44,9.21,-0.01,-0.01,0.0,29.61,3.0,
966,270,208,14,0.46,2.48,9.19,-0.01,-0.01,-0.0,29.52,3.0,
966,270,208,15,0.53,2.5,9.17,-0.01,-0.01,-0.0,29.61,3.0,
966,270,208,16,0.48,2.49,9.15,-0.01,-0.01,0.0,29.57,3.0,
966,270,208,17,0.54,2.49,9.22,-0.01,-0.01,-0.0,29.57,3.0,
966,270,208,18,0.55,2.52,9.21,-0.01,-0.01,0.0,29.47,3.0,
966,270,208,19,0.46,2.51,9.17,-0.01,-0.02,-0.0,29.61,3.0,
967,272,210,0,0.45,2.51,9.15,-0.01,-0.01,0.0,29.57,3.0,
967,272,210,1,0.51,2.48,9.16,-0.01,-0.01,-0.0,29.52,3.0,
967,272,210,2,0.44,2.48,9.17,-0.01,-0.01,0.0,29.47,3.0,
967,272,210,3,0.43,2.48,9.13,-0.01,-0.01,0.0,29.47,3.0,
967,272,210,4,0.5,2.54,9.15,-0.01,-0.01,-0.0,29.57,3.0,
967,272,210,5,0.45,2.43,9.17,-0.01,-0.01,-0.0,29.57,3.0,
967,272,210,6,0.44,2.45,9.24,-0.01,-0.02,0.0,29.47,3.0,
967,272,210,7,0.47,2.48,9.13,-0.01,-0.01,0.0,29.57,3.0,
967,272,210,8,0.48,2.5,9.12,-0.01,-0.02,-0.0,29.52,3.0,
967,272,210,9,0.48,2.47,9.15,-0.01,-0.01,-0.0,29.52,3.0,
967,272,210,10,0.52,2.56,9.22,-0.01,-0.02,0.0,29.52,3.0,
967,272,210,11,0.47,2.52,9.16,-0.01,-0.01,0.0,29.61,3.0,
967,272,210,12,0.45,2.53,9.09,-0.01,-0.01,-0.0,29.61,3.0,
967,272,210,13,0.49,2.48,9.13,-0.01,-0.01,0.0,29.57,3.0,
967,272,210,14,0.45,2.49,9.08,-0.01,-0.01,0.01,29.57,3.0,
967,272,210,15,0.44,2.5,9.16,-0.01,-0.01,0.0,29.57,3.0,
967,272,210,16,0.48,2.51,9.24,-0.01,-0.02,-0.0,29.57,3.0,
967,272,210,17,0.51,2.53,9.13,-0.01,-0.02,0.0,29.52,3.0,
967,272,210,18,0.46,2.44,9.18,-0.01,-0.02,-0.0,29.52,3.0,
967,272,210,19,0.52,2.51,9.11,-0.01,-0.02,0.0,29.61,3.0,
968,256,194,0,0.48,2.55,9.16,-0.01,-0.02,0.0,29.57,3.0,
968,256,194,1,0.49,2.45,9.12,-0.01,-0.01,-0.0,29.52,3.0,
968,256,194,2,0.48,2.49,9.17,-0.01,-0.01,0.0,29.61,3.0,
968,256,194,3,0.46,2.44,9.08,-0.01,-0.01,-0.0,29.52,3.0,
968,256,194,4,0.43,2.43,9.14,-0.02,-0.02,-0.0,29.47,3.0,
968,256,194,5,0.46,2.51,9.17,-0.01,-0.02,-0.0,29.57,3.0,
968,256,194,6,0.44,2.56,9.21,-0.01,-0.02,0.0,29.57,3.0,
968,256,194,7,0.4,2.44,9.22,-0.01,-0.01,-0.0,29.57,3.0,
968,256,194,8,0.45,2.5,9.2,-0.01,-0.02,0.0,29.57,3.0,
968,256,194,9,0.49,2.56,9.15,-0.01,-0.01,0.0,29.61,3.0,
968,256,194,10,0.41,2.47,9.15,-0.01,-0.02,-0.0,29.52,3.0,
968,256,194,11,0.47,2.49,9.15,-0.01,-0.01,0.0,29.61,3.0,
968,256,194,12,0.48,2.51,9.14,-0.01,-0.02,0.0,29.52,3.0,
968,256,194,13,0.52,2.48,9.16,-0.01,-0.02,0.0,29.61,3.0,
968,256,194,14,0.45,2.51,9.21,-0.01,-0.02,-0.0,29.57,3.0,
968,256,194,15,0.49,2.49,9.12,-0.01,-0.01,0.0,29.57,3.0,
968,256,194,16,0.46,2.49,9.16,-0.01,-0.01,0.0,29.57,3.0,
968,256,194,17,0.48,2.47,9.12,-0.01,-0.02,-0.0,29.47,3.0,
968,256,194,18,0.5,2.48,9.09,-0.01,-0.02,0.0,29.52,3.0,
968,256,194,19,0.49,2.42,9.13,-0.01,-0.02,-0.0,29.61,3.0,
969,275,213,0,0.47,2.54,9.26,-0.01,-0.01,0.0,29.47,3.0,
969,275,213,1,0.48,2.47,9.41,-0.01,-0.01,0.0,29.57,3.0,
969,275,213,2,0.45,2.54,9.21,-0.01,-0.02,0.0,29.57,3.0,
969,275,213,3,0.42,2.47,9.37,-0.01,-0.01,0.0,29.61,3.0,
969,275,213,4,0.46,2.53,9.28,-0.01,-0.01,-0.0,29.52,3.0,
969,275,213,5,0.44,2.53,9.26,-0.01,-0.02,0.0,29.52,3.0,
969,275,213,6,0.42,2.48,9.23,-0.01,-0.01,0.0,29.57,3.0,
969,275,213,7,0.43,2.55,9.18,-0.01,-0.02,-0.0,29.57,3.0,
969,275,213,8,0.43,2.46,9.2,-0.01,-0.01,0.01,29.47,3.0,
969,275,213,9,0.46,2.48,9.09,-0.01,-0.01,0.0,29.47,3.0,
969,275,213,10,0.49,2.49,9.06,-0.01,-0.02,-0.0,29.47,3.0,
969,275,213,11,0.44,2.52,9.03,-0.01,-0.02,-0.0,29.57,3.0,
969,275,213,12,0.5,2.49,9.02,-0.01,-0.01,0.0,29.66,3.0,
969,275,213,13,0.49,2.5,9.04,-0.01,-0.01,-0.0,29.57,3.0,
969,275,213,14,0.46,2.45,9.05,-0.01,-0.02,0.0,29.61,3.0,
969,275,213,15,0.5,2.5,8.94,-0.01,-0.01,0.0,29.52,3.0,
969,275,213,16,0.52,2.47,9.05,-0.01,-0.01,0.0,29.61,3.0,
969,275,213,17,0.51,2.44,9.01,-0.01,-0.01,0.0,29.61,3.0,
969,275,213,18,0.47,2.49,9.03,-0.01,-0.02,0.0,29.57,3.0,
969,275,213,19,0.51,2.5,9.17,-0.02,-0.01,-0.0,29.57,3.0,
970,1000,939,0,0.48,2.49,9.16,-0.01,-0.02,0.0,29.57,4.0,
970,1000,939,1,0.47,2.54,9.18,-0.01,-0.01,0.0,29.57,3.0,
970,1000,939,2,0.46,2.43,9.16,-0.01,-0.01,-0.0,29.52,2.0,
970,1000,939,3,0.44,2.51,9.13,-0.01,-0.02,-0.0,29.52,2.0,
970,1000,939,4,0.45,2.45,9.18,-0.01,-0.01,-0.0,29.66,3.0,
970,1000,939,5,0.46,2.5,9.19,-0.01,-0.01,0.0,29.47,3.0,
970,1000,939,6,0.51,2.51,9.22,-0.01,-0.01,-0.0,29.57,3.0,
970,1000,939,7,0.45,2.52,9.19,-0.01,-0.02,0.0,29.57,3.0,
970,1000,939,8,0.5,2.47,9.19,-0.01,-0.01,0.0,29.57,3.0,
970,1000,939,9,0.49,2.59,9.13,-0.01,-0.01,-0.0,29.57,3.0,
970,1000,939,10,0.46,2.42,9.12,-0.01,-0.01,0.0,29.61,3.0,
970,1000,939,11,0.48,2.48,9.05,-0.01,-0.02,0.0,29.61,3.0,
970,1000,939,12,0.42,2.5,9.12,-0.01,-0.02,-0.0,29.52,3.0,
970,1000,939,13,0.45,2.46,9.12,-0.01,-0.01,-0.0,29.66,3.0,
970,1000,939,14,0.48,2.42,9.17,-0.01,-0.02,0.0,29.47,3.0,
970,1000,939,15,0.44,2.5,9.13,-0.01,-0.01,0.0,29.57,3.0,
970,1000,939,16,0.45,2.5,9.18,-0.01,-0.01,0.0,29.57,3.0,
970,1000,939,17,0.49,2.51,9.09,-0.01,-0.02,-0.0,29.57,3.0,
970,1000,939,18,0.44,2.45,9.12,-0.01,-0.01,0.0,29.52,3.0,
970,1000,939,19,0.49,2.5,9.16,-0.01,-0.02,0.0,29.61,3.0,
971,292,230,0,0.56,2.42,9.06,-0.01,-0.01,0.0,29.57,3.0,
971,292,230,1,0.48,2.48,9.15,-0.01,-0.01,-0.0,29.52,3.0,
971,292,230,2,0.46,2.53,9.11,-0.01,-0.02,-0.0,29.52,3.0,
971,292,230,3,0.45,2.54,9.13,-0.01,-0.02,-0.0,29.47,3.0,
971,292,230,4,0.49,2.47,9.17,-0.01,-0.01,-0.0,29.66,3.0,
971,292,230,5,0.51,2.49,9.11,-0.01,-0.01,0.0,29.57,3.0,
971,292,230,6,0.45,2.45,9.17,-0.01,-0.02,-0.0,29.47,3.0,
971,292,230,7,0.42,2.49,9.19,-0.01,-0.01,0.0,29.57,3.0,
971,292,230,8,0.49,2.48,9.2,-0.01,-0.01,-0.0,29.61,3.0,
971,292,230,9,0.46,2.49,9.23,-0.01,-0.01,-0.0,29.52,3.0,
971,292,230,10,0.52,2.51,9.12,-0.01,-0.01,0.0,29.52,3.0,
971,292,230,11,0.48,2.5,9.17,-0.02,-0.01,-0.0,29.57,3.0,
971,292,230,12,0.44,2.55,9.07,-0.01,-0.01,0.0,29.57,3.0,
971,292,230,13,0.46,2.5,9.17,-0.01,-0.02,0.0,29.57,3.0,
971,292,230,14,0.46,2.51,9.12,-0.01,-0.01,-0.0,29.47,3.0,
971,292,230,15,0.47,2.55,9.12,-0.01,-0.01,-0.0,29.57,3.0,
971,292,230,16,0.44,2.47,9.19,-0.01,-0.01,-0.0,29.57,3.0,
971,292,230,17,0.47,2.51,9.22,-0.01,-0.01,-0.0,29.52,3.0,
971,292,230,18,0.47,2.48,9.15,-0.01,-0.01,0.0,29.52,3.0,
971,292,230,19,0.45,2.46,9.1,-0.01,-0.02,0.0,29.61,3.0,
972,282,220,0,0.45,2.57,9.32,-0.01,-0.02,0.0,29.52,3.0,
972,282,220,1,0.42,2.51,9.3,-0.01,-0.02,0.0,29.57,2.0,
972,282,220,2,0.49,2.55,9.31,-0.01,-0.02,0.0,29.57,3.0,
972,282,220,3,0.45,2.48,9.27,-0.01,-0.02,0.0,29.61,3.0,
972,282,220,4,0.53,2.55,9.12,-0.01,-0.02,0.0,29.52,3.0,
972,282,220,5,0.47,2.54,9.19,-0.01,-0.02,-0.0,29.57,3.0,
972,282,220,6,0.49,2.51,9.08,-0.01,-0.02,0.0,29.57,3.0,
972,282,220,7,0.48,2.52,9.0,-0.01,-0.01,-0.0,29.66,3.0,
972,282,220,8,0.47,2.48,9.03,-0.01,-0.01,0.0,29.57,3.0,
972,282,220,9,0.52,2.42,8.93,-0.01,-0.01,0.0,29.57,3.0,
972,282,220,10,0.53,2.46,8.93,-0.02,-0.01,0.0,29.52,3.0,
972,282,220,11,0.5,2.45,8.96,-0.01,-0.01,0.0,29.61,3.0,
972,282,220,12,0.56,2.41,8.89,-0.01,-0.01,-0.0,29.61,3.0,
972,282,220,13,0.41,2.47,9.01,-0.01,-0.02,0.0,29.52,3.0,
972,282,220,14,0.48,2.46,8.9,-0.01,-0.01,-0.0,29.66,3.0,
972,282,220,15,0.5,2.4,8.96,-0.01,-0.01,-0.0,29.57,3.0,
972,282,220,16,0.47,2.46,9.06,-0.01,-0.02,0.0,29.57,3.0,
972,282,220,17,0.43,2.44,9.08,-0.01,-0.01,0.0,29.57,3.0,
972,282,220,18,0.51,2.49,9.06,-0.01,-0.01,-0.0,29.57,3.0,
972,282,220,19,0.47,2.52,9.18,-0.01,-0.01,-0.0,29.57,3.0,
973,249,188,0,0.44,2.49,9.1,-0.01,-0.01,-0.0,29.61,3.0,
973,249,188,1,0.46,2.49,9.14,-0.01,-0.01,-0.0,29.57,3.0,
973,249,188,2,0.46,2.49,9.15,-0.01,-0.02,0.0,29.57,3.0,
973,249,188,3,0.49,2.48,9.14,-0.01,-0.02,-0.0,29.57,3.0,
973,249,188,4,0.45,2.43,9.14,-0.01,-0.02,0.0,29.52,3.0,
973,249,188,5,0.43,2.43,9.15,-0.01,-0.01,-0.0,29.52,3.0,
973,249,188,6,0.46,2.48,9.07,-0.01,-0.02,0.0,29.61,3.0,
973,249,188,7,0.44,2.54,9.15,-0.01,-0.01,-0.0,29.61,3.0,
973,249,188,8,0.42,2.49,9.19,-0.01,-0.01,0.0,29.52,3.0,
973,249,188,9,0.47,2.45,9.26,-0.01,-0.01,0.0,29.66,3.0,
973,249,188,10,0.5,2.45,9.23,-0.01,-0.01,-0.0,29.57,3.0,
973,249,188,11,0.44,2.55,9.14,-0.01,-0.01,0.0,29.57,3.0,
973,249,188,12,0.47,2.51,9.2,-0.01,-0.02,0.0,29.57,3.0,
973,249,188,13,0.45,2.46,9.28,-0.01,-0.01,-0.0,29.57,3.0,
973,249,188,14,0.4,2.49,9.1,-0.01,-0.02,-0.0,29.61,3.0,
973,249,188,15,0.47,2.5,9.22,-0.01,-0.01,0.0,29.61,3.0,
973,249,188,16,0.47,2.52,9.19,-0.01,-0.02,0.0,29.52,3.0,
973,249,188,17,0.44,2.51,9.09,-0.01,-0.01,0.0,29.57,3.0,
973,249,188,18,0.38,2.52,9.13,-0.01,-0.02,0.0,29.66,3.0,
973,249,188,19,0.47,2.47,9.15,-0.01,-0.01,0.0,29.47,3.0,
974,286,225,0,0.45,2.5,9.21,-0.02,-0.01,-0.0,29.57,3.0,
974,286,225,1,0.46,2.48,9.17,-0.01,-0.01,0.0,29.57,3.0,
974,286,225,2,0.45,2.49,9.08,-0.01,-0.02,0.0,29.66,3.0,
974,286,225,3,0.51,2.51,9.16,-0.01,-0.02,-0.0,29.57,3.0,
974,286,225,4,0.49,2.56,9.23,-0.01,-0.01,0.0,29.66,3.0,
974,286,225,5,0.48,2.48,9.1,-0.01,-0.02,-0.0,29.52,3.0,
974,286,225,6,0.48,2.48,9.13,-0.01,-0.01,0.0,29.61,3.0,
974,286,225,7,0.49,2.54,9.18,-0.01,-0.01,-0.0,29.61,3.0,
974,286,225,8,0.51,2.49,9.18,-0.01,-0.01,0.0,29.52,3.0,
974,286,225,9,0.5,2.47,9.08,-0.01,-0.02,0.0,29.66,3.0,
974,286,225,10,0.45,2.45,9.16,-0.01,-0.01,0.0,29.57,3.0,
974,286,225,11,0.4,2.47,9.15,-0.01,-0.01,-0.0,29.57,3.0,
974,286,225,12,0.45,2.55,9.17,-0.01,-0.02,0.0,29.57,3.0,
974,286,225,13,0.51,2.45,9.15,-0.01,-0.01,0.0,29.57,3.0,
974,286,225,14,0.46,2.5,9.17,-0.02,-0.01,0.0,29.52,3.0,
974,286,225,15,0.49,2.56,9.13,-0.01,-0.02,0.0,29.61,3.0,
974,286,225,16,0.48,2.47,9.12,-0.01,-0.02,-0.0,29.61,3.0,
974,286,225,17,0.49,2.51,9.16,-0.01,-0.01,0.0,29.61,3.0,
974,286,225,18,0.47,2.58,9.17,-0.01,-0.02,0.0,29.52,3.0,
974,286,225,19,0.5,2.46,9.14,-0.01,-0.01,0.0,29.57,3.0,
975,267,205,0,0.42,2.48,9.12,-0.01,-0.01,0.0,29.57,4.0,
975,267,205,1,0.4,2.54,9.16,-0.02,-0.02,0.0,29.57,3.0,
975,267,205,2,0.49,2.51,9.15,-0.01,-0.01,0.0,29.61,3.0,
975,267,205,3,0.46,2.48,9.2,-0.01,-0.02,0.0,29.61,2.0,
975,267,205,4,0.48,2.47,9.11,-0.01,-0.02,-0.0,29.61,2.0,
975,267,205,5,0.47,2.5,9.2,-0.01,-0.01,-0.0,29.61,3.0,
975,267,205,6,0.48,2.46,9.15,-0.01,-0.01,0.0,29.57,3.0,
975,267,205,7,0.48,2.52,9.23,-0.01,-0.02,0.0,29.47,3.0,
975,267,205,8,0.51,2.52,9.21,-0.01,-0.01,-0.0,29.57,3.0,
975,267,205,9,0.45,2.51,9.16,-0.01,-0.02,0.0,29.66,3.0,
975,267,205,10,0.45,2.5,9.17,-0.01,-0.01,0.0,29.52,3.0,
975,267,205,11,0.48,2.45,9.22,-0.01,-0.02,-0.0,29.52,3.0,
975,267,205,12,0.47,2.52,9.08,-0.01,-0.01,0.0,29.52,3.0,
975,267,205,13,0.49,2.55,9.14,-0.01,-0.02,-0.0,29.66,3.0,
975,267,205,14,0.4,2.45,9.1,-0.01,-0.02,0.0,29.66,3.0,
975,267,205,15,0.46,2.48,9.12,-0.01,-0.01,-0.0,29.57,3.0,
975,267,205,16,0.46,2.52,9.07,-0.01,-0.01,0.0,29.57,3.0,
975,267,205,17,0.4,2.5,9.24,-0.01,-0.02,0.0,29.57,3.0,
975,267,205,18,0.51,2.51,9.16,-0.01,-0.02,0.0,29.61,3.0,
975,267,205,19,0.51,2.5,9.18,-0.01,-0.02,0.0,29.61,3.0,
976,280,219,0,0.46,2.47,9.1,-0.01,-0.02,0.0,29.66,3.0,
976,280,219,1,0.49,2.51,9.15,-0.01,-0.01,0.0,29.61,2.0,
976,280,219,2,0.48,2.47,9.17,-0.01,-0.01,0.0,29.52,3.0,
976,280,219,3,0.49,2.45,9.06,-0.01,-0.01,0.0,29.57,3.0,
976,280,219,4,0.49,2.52,9.11,-0.01,-0.02,-0.0,29.57,3.0,
976,280,219,5,0.44,2.49,9.19,-0.01,-0.02,-0.0,29.57,3.0,
976,280,219,6,0.45,2.5,9.13,-0.01,-0.02,0.0,29.47,3.0,
976,280,219,7,0.5,2.49,9.09,-0.01,-0.01,0.0,29.52,3.0,
976,280,219,8,0.44,2.49,9.16,-0.01,-0.01,0.0,29.52,3.0,
976,280,219,9,0.48,2.51,9.17,-0.01,-0.02,-0.0,29.57,3.0,
976,280,219,10,0.49,2.48,9.19,-0.01,-0.01,-0.0,29.57,3.0,
976,280,219,11,0.45,2.51,9.14,-0.01,-0.01,0.0,29.57,3.0,
976,280,219,12,0.39,2.54,9.19,-0.01,-0.02,-0.0,29.66,3.0,
976,280,219,13,0.51,2.5,9.19,-0.01,-0.02,0.0,29.66,3.0,
976,280,219,14,0.39,2.48,9.14,-0.01,-0.02,0.0,29.47,3.0,
976,280,219,15,0.51,2.53,9.16,-0.01,-0.02,0.0,29.61,3.0,
976,280,219,16,0.39,2.46,9.15,-0.01,-0.02,0.0,29.61,3.0,
976,280,219,17,0.46,2.44,9.16,-0.01,-0.01,-0.0,29.52,3.0,
976,280,219,18,0.41,2.48,9.13,-0.01,-0.02,-0.0,29.71,3.0,
976,280,219,19,0.46,2.46,9.14,-0.01,-0.01,0.0,29.47,3.0,
977,276,215,0,0.42,2.45,9.11,-0.01,-0.02,0.0,29.52,3.0,
977,276,215,1,0.5,2.49,9.16,-0.01,-0.01,-0.0,29.57,3.0,
977,276,215,2,0.48,2.45,9.11,-0.01,-0.01,-0.0,29.47,3.0,
977,276,215,3,0.51,2.58,9.19,-0.01,-0.02,0.0,29.57,3.0,
977,276,215,4,0.51,2.57,9.11,-0.01,-0.01,0.0,29.61,3.0,
977,276,215,5,0.44,2.51,9.1,-0.01,-0.02,-0.0,29.52,3.0,
977,276,215,6,0.46,2.43,9.16,-0.01,-0.01,0.0,29.61,3.0,
977,276,215,7,0.49,2.54,9.08,-0.01,-0.01,0.0,29.52,3.0,
977,276,215,8,0.46,2.46,9.12,-0.01,-0.01,-0.0,29.47,3.0,
977,276,215,9,0.42,2.53,9.17,-0.01,-0.01,0.0,29.57,3.0,
977,276,215,10,0.5,2.42,9.12,-0.01,-0.02,0.0,29.57,3.0,
977,276,215,11,0.49,2.5,9.1,-0.01,-0.02,0.0,29.57,3.0,
977,276,215,12,0.42,2.53,9.09,-0.01,-0.01,-0.0,29.57,3.0,
977,276,215,13,0.44,2.47,9.18,-0.01,-0.02,0.0,29.52,3.0,
977,276,215,14,0.48,2.45,9.15,-0.01,-0.02,-0.0,29.52,3.0,
977,276,215,15,0.44,2.53,9.14,-0.01,-0.01,0.0,29.52,3.0,
977,276,215,16,0.44,2.55,9.17,-0.01,-0.02,-0.0,29.52,3.0,
977,276,215,17,0.49,2.56,9.11,-0.01,-0.01,-0.0,29.57,3.0,
977,276,215,18,0.49,2.53,9.2,-0.01,-0.01,-0.0,29.57,3.0,
977,276,215,19,0.42,2.52,9.12,-0.01,-0.01,0.0,29.66,3.0,
978,265,203,0,0.48,2.48,9.13,-0.01,-0.01,0.0,29.61,3.0,
978,265,203,1,0.52,2.49,9.17,-0.01,-0.01,0.0,29.57,3.0,
978,265,203,2,0.46,2.48,9.13,-0.01,-0.01,0.0,29.57,3.0,
978,265,203,3,0.47,2.45,9.13,-0.01,-0.02,0.0,29.52,3.0,
978,265,203,4,0.46,2.47,9.14,-0.01,-0.01,-0.0,29.71,3.0,
978,265,203,5,0.49,2.45,9.2,-0.01,-0.02,-0.0,29.71,3.0,
978,265,203,6,0.44,2.5,9.13,-0.01,-0.01,0.0,29.61,3.0,
978,265,203,7,0.49,2.52,9.21,-0.01,-0.01,-0.0,29.57,2.0,
978,265,203,8,0.51,2.49,9.24,-0.01,-0.02,-0.0,29.66,2.0,
978,265,203,9,0.47,2.43,9.16,-0.01,-0.02,0.0,29.57,2.0,
978,265,203,10,0.44,2.44,9.16,-0.01,-0.01,-0.0,29.61,3.0,
978,265,203,11,0.48,2.52,9.14,-0.01,-0.01,0.0,29.52,3.0,
978,265,203,12,0.42,2.53,9.12,-0.01,-0.02,-0.0,29.71,3.0,
978,265,203,13,0.42,2.44,9.12,-0.01,-0.01,0.0,29.61,3.0,
978,265,203,14,0.45,2.48,9.09,-0.01,-0.01,-0.0,29.57,3.0,
978,265,203,15,0.5,2.51,9.15,-0.01,-0.01,-0.0,29.57,3.0,
978,265,203,16,0.52,2.45,9.18,-0.01,-0.01,0.0,29.57,3.0,
978,265,203,17,0.53,2.46,9.13,-0.01,-0.01,-0.0,29.57,3.0,
978,265,203,18,0.48,2.46,9.18,-0.01,-0.02,0.0,29.66,3.0,
978,265,203,19,0.49,2.49,9.11,-0.01,-0.01,-0.0,29.52,3.0,
979,260,199,0,0.41,2.51,9.17,-0.01,-0.02,-0.0,29.61,3.0,
979,260,199,1,0.47,2.45,9.12,-0.01,-0.02,-0.0,29.66,3.0,
979,260,199,2,0.5,2.45,9.13,-0.01,-0.02,0.0,29.47,3.0,
979,260,199,3,0.48,2.51,9.11,-0.02,-0.01,0.0,29.61,3.0,
979,260,199,4,0.44,2.46,9.1,-0.01,-0.01,-0.0,29.61,3.0,
979,260,199,5,0.47,2.47,9.14,-0.01,-0.02,0.0,29.61,3.0,
979,260,199,6,0.51,2.52,9.19,-0.01,-0.02,-0.0,29.61,3.0,
979,260,199,7,0.48,2.55,9.17,-0.01,-0.01,-0.0,29.57,3.0,
979,260,199,8,0.48,2.52,9.12,-0.01,-0.01,0.0,29.66,3.0,
979,260,199,9,0.48,2.55,9.17,-0.01,-0.02,-0.0,29.57,3.0,
979,260,199,10,0.51,2.57,9.24,-0.01,-0.02,-0.0,29.57,3.0,
979,260,199,11,0.48,2.47,9.11,-0.01,-0.02,0.0,29.57,3.0,
979,260,199,12,0.49,2.52,9.11,-0.01,-0.01,0.0,29.52,3.0,
979,260,199,13,0.5,2.55,9.2,-0.01,-0.01,-0.0,29.61,3.0,
979,260,199,14,0.47,2.54,9.16,-0.01,-0.02,0.0,29.52,3.0,
979,260,199,15,0.45,2.49,9.09,-0.01,-0.02,0.0,29.61,3.0,
979,260,199,16,0.45,2.51,9.2,-0.01,-0.01,-0.0,29.61,3.0,
979,260,199,17,0.5,2.47,9.21,-0.01,-0.02,-0.0,29.57,3.0,
979,260,199,18,0.46,2.44,9.08,-0.01,-0.01,0.0,29.57,3.0,
979,260,199,19,0.53,2.52,9.21,-0.01,-0.02,0.0,29.57,3.0,
980,279,218,0,0.52,2.5,9.12,-0.01,-0.01,-0.0,29.61,3.0,
980,279,218,1,0.47,2.49,9.16,-0.01,-0.01,0.0,29.66,3.0,
980,279,218,2,0.45,2.46,9.09,-0.01,-0.02,0.0,29.66,3.0,
980,279,218,3,0.48,2.47,9.27,-0.01,-0.01,0.0,29.66,3.0,
980,279,218,4,0.49,2.48,9.22,-0.01,-0.02,-0.0,29.61,3.0,
980,279,218,5,0.48,2.45,9.16,-0.01,-0.01,-0.0,29.61,3.0,
980,279,218,6,0.48,2.49,9.15,-0.01,-0.01,0.0,29.61,3.0,
980,279,218,7,0.47,2.5,9.17,-0.01,-0.01,0.0,29.66,2.0,
980,279,218,8,0.51,2.5,9.22,-0.01,-0.01,-0.0,29.57,2.0,
980,279,218,9,0.47,2.44,9.02,-0.01,-0.02,0.0,29.57,2.0,
980,279,218,10,0.44,2.45,9.15,-0.01,-0.01,0.0,29.57,3.0,
980,279,218,11,0.49,2.55,9.06,-0.01,-0.02,0.0,29.52,3.0,
980,279,218,12,0.45,2.48,9.18,-0.01,-0.01,-0.0,29.61,3.0,
980,279,218,13,0.45,2.45,9.15,-0.01,-0.01,-0.0,29.61,3.0,
980,279,218,14,0.46,2.55,9.14,-0.01,-0.02,-0.0,29.61,3.0,
980,279,218,15,0.51,2.47,9.12,-0.01,-0.01,-0.0,29.57,3.0,
980,279,218,16,0.46,2.49,9.18,-0.01,-0.02,-0.0,29.66,3.0,
980,279,218,17,0.47,2.45,9.12,-0.01,-0.01,-0.0,29.57,3.0,
980,279,218,18,0.46,2.5,9.22,-0.01,-0.01,0.0,29.57,3.0,
980,279,218,19,0.5,2.49,9.09,-0.01,-0.01,0.0,29.61,3.0,
981,290,228,0,0.48,2.5,9.17,-0.01,-0.01,0.0,29.52,3.0,
981,290,228,1,0.48,2.51,9.2,-0.01,-0.02,0.0,29.57,3.0,
981,290,228,2,0.47,2.47,9.09,-0.01,-0.01,0.0,29.61,3.0,
981,290,228,3,0.49,2.52,9.17,-0.01,-0.01,0.0,29.71,3.0,
981,290,228,4,0.45,2.51,9.22,-0.01,-0.01,0.0,29.61,3.0,
981,290,228,5,0.49,2.52,9.06,-0.02,-0.01,0.0,29.61,3.0,
981,290,228,6,0.51,2.38,9.19,-0.01,-0.01,-0.0,29.52,3.0,
981,290,228,7,0.51,2.49,9.16,-0.01,-0.02,-0.0,29.66,3.0,
981,290,228,8,0.46,2.54,9.21,-0.01,-0.01,0.0,29.57,3.0,
981,290,228,9,0.45,2.54,9.19,-0.01,-0.01,0.0,29.47,3.0,
981,290,228,10,0.46,2.48,9.16,-0.01,-0.01,0.0,29.57,3.0,
981,290,228,11,0.43,2.48,9.23,-0.01,-0.01,-0.0,29.71,3.0,
981,290,228,12,0.48,2.5,9.14,-0.01,-0.01,0.0,29.71,3.0,
981,290,228,13,0.48,2.52,9.1,-0.01,-0.02,-0.0,29.57,2.0,
981,290,228,14,0.51,2.47,9.13,-0.01,-0.01,-0.0,29.57,2.0,
981,290,228,15,0.46,2.51,9.14,-0.01,-0.01,0.0,29.57,3.0,
981,290,228,16,0.54,2.48,9.17,-0.01,-0.01,0.0,29.66,3.0,
981,290,228,17,0.49,2.51,9.17,-0.01,-0.02,0.0,29.57,3.0,
981,290,228,18,0.42,2.53,9.07,-0.01,-0.01,0.0,29.52,3.0,
981,290,228,19,0.47,2.53,9.15,-0.01,-0.01,-0.0,29.61,3.0,
982,261,200,0,0.5,2.51,9.18,-0.01,-0.01,0.0,29.61,3.0,
982,261,200,1,0.53,2.47,9.17,-0.01,-0.02,-0.0,29.47,2.0,
982,261,200,2,0.49,2.52,9.19,-0.01,-0.01,0.0,29.57,3.0,
982,261,200,3,0.46,2.46,9.17,-0.01,-0.01,0.0,29.57,3.0,
982,261,200,4,0.44,2.53,9.17,-0.01,-0.02,-0.0,29.61,3.0,
982,261,200,5,0.47,2.43,9.17,-0.01,-0.02,0.0,29.61,3.0,
982,261,200,6,0.47,2.48,9.14,-0.01,-0.01,-0.0,29.61,3.0,
982,261,200,7,0.51,2.49,9.12,-0.01,-0.02,-0.0,29.61,3.0,
982,261,200,8,0.49,2.52,9.12,-0.01,-0.02,0.0,29.57,3.0,
982,261,200,9,0.46,2.47,9.09,-0.01,-0.01,-0.0,29.57,3.0,
982,261,200,10,0.51,2.5,9.12,-0.01,-0.02,-0.0,29.57,3.0,
982,261,200,11,0.41,2.49,9.09,-0.01,-0.01,0.0,29.52,3.0,
982,261,200,12,0.46,2.49,9.12,-0.01,-0.02,-0.0,29.61,3.0,
982,261,200,13,0.49,2.44,9.2,-0.01,-0.01,-0.0,29.52,3.0,
982,261,200,14,0.49,2.49,9.21,-0.01,-0.02,0.0,29.61,3.0,
982,261,200,15,0.5,2.49,9.14,-0.01,-0.01,-0.0,29.57,3.0,
982,261,200,16,0.48,2.52,9.19,-0.02,-0.02,0.0,29.47,3.0,
982,261,200,17,0.46,2.48,9.1,-0.01,-0.02,-0.0,29.57,3.0,
982,261,200,18,0.48,2.47,9.18,-0.01,-0.02,0.0,29.66,3.0,
982,261,200,19,0.49,2.51,9.22,-0.01,-0.01,0.0,29.57,3.0,
983,290,229,0,0.54,2.49,9.08,-0.01,-0.01,0.0,29.57,4.0,
983,290,229,1,0.48,2.46,9.08,-0.01,-0.01,-0.0,29.71,3.0,
983,290,229,2,0.45,2.45,9.09,-0.01,-0.01,-0.0,29.57,2.0,
983,290,229,3,0.47,2.53,9.21,-0.01,-0.01,0.0,29.57,2.0,
983,290,229,4,0.45,2.46,9.19,-0.01,-0.02,-0.0,29.57,3.0,
983,290,229,5,0.5,2.53,9.21,-0.01,-0.01,0.0,29.66,3.0,
983,290,229,6,0.4,2.5,9.12,-0.01,-0.01,-0.0,29.66,3.0,
983,290,229,7,0.45,2.42,9.16,-0.01,-0.01,0.0,29.61,3.0,
983,290,229,8,0.49,2.53,9.12,-0.01,-0.02,0.0,29.52,3.0,
983,290,229,9,0.52,2.52,9.16,-0.01,-0.02,-0.0,29.71,3.0,
983,290,229,10,0.45,2.43,9.23,-0.01,-0.01,0.01,29.66,3.0,
983,290,229,11,0.5,2.49,9.08,-0.01,-0.02,-0.0,29.57,3.0,
983,290,229,12,0.44,2.49,9.07,-0.01,-0.01,-0.0,29.66,3.0,
983,290,229,13,0.44,2.49,9.12,-0.01,-0.01,-0.0,29.66,3.0,
983,290,229,14,0.5,2.49,9.2,-0.01,-0.02,-0.0,29.61,3.0,
983,290,229,15,0.52,2.47,9.23,-0.01,-0.01,0.0,29.61,3.0,
983,290,229,16,0.5,2.48,9.17,-0.01,-0.02,-0.0,29.61,3.0,
983,290,229,17,0.46,2.43,9.1,-0.01,-0.01,0.0,29.52,3.0,
983,290,229,18,0.45,2.44,9.15,-0.01,-0.01,0.0,29.57,3.0,
983,290,229,19,0.44,2.48,9.14,-0.01,-0.01,-0.0,29.66,3.0,
984,279,218,0,0.48,2.5,9.15,-0.01,-0.01,0.0,29.52,4.0,
984,279,218,1,0.45,2.45,9.17,-0.01,-0.02,0.0,29.61,3.0,
984,279,218,2,0.54,2.49,9.07,-0.01,-0.02,-0.0,29.71,2.0,
984,279,218,3,0.5,2.4,9.05,-0.01,-0.01,0.0,29.71,2.0,
984,279,218,4,0.41,2.5,9.1,-0.01,-0.02,-0.0,29.61,3.0,
984,279,218,5,0.47,2.45,9.11,-0.01,-0.01,0.01,29.66,3.0,
984,279,218,6,0.4,2.52,9.11,-0.01,-0.02,0.01,29.57,3.0,
984,279,218,7,0.49,2.46,9.05,-0.01,-0.01,-0.0,29.57,3.0,
984,279,218,8,0.44,2.49,9.2,-0.01,-0.02,-0.0,29.61,3.0,
984,279,218,9,0.46,2.48,9.21,-0.01,-0.02,-0.0,29.61,3.0,
984,279,218,10,0.5,2.48,9.1,-0.01,-0.01,-0.0,29.52,3.0,
984,279,218,11,0.51,2.48,9.18,-0.01,-0.01,0.0,29.61,3.0,
984,279,218,12,0.52,2.49,9.17,-0.01,-0.01,0.0,29.66,3.0,
984,279,218,13,0.49,2.53,9.13,-0.01,-0.01,-0.0,29.66,3.0,
984,279,218,14,0.46,2.52,9.13,-0.01,-0.02,0.0,29.57,3.0,
984,279,218,15,0.44,2.49,9.15,-0.01,-0.01,0.0,29.47,3.0,
984,279,218,16,0.45,2.49,9.17,-0.01,-0.02,-0.0,29.52,3.0,
984,279,218,17,0.44,2.46,9.13,-0.01,-0.02,-0.0,29.61,3.0,
984,279,218,18,0.49,2.46,9.18,-0.01,-0.02,0.0,29.61,3.0,
984,279,218,19,0.46,2.46,9.14,-0.01,-0.02,0.0,29.57,3.0,
985,286,225,0,0.45,2.53,9.11,-0.01,-0.02,0.0,29.57,4.0,
985,286,225,1,0.51,2.51,9.06,-0.01,-0.01,-0.0,29.52,3.0,
985,286,225,2,0.47,2.49,9.22,-0.01,-0.01,0.0,29.61,2.0,
985,286,225,3,0.56,2.47,9.19,-0.01,-0.02,0.0,29.52,2.0,
985,286,225,4,0.49,2.49,9.21,-0.01,-0.01,0.0,29.66,3.0,
985,286,225,5,0.49,2.46,9.15,-0.01,-0.01,0.0,29.66,3.0,
985,286,225,6,0.48,2.46,9.1,-0.01,-0.02,0.01,29.57,3.0,
985,286,225,7,0.48,2.5,9.09,-0.01,-0.01,-0.01,29.57,3.0,
985,286,225,8,0.5,2.53,9.12,-0.01,-0.02,0.0,29.57,3.0,
985,286,225,9,0.47,2.48,9.12,-0.01,-0.01,-0.0,29.47,3.0,
985,286,225,10,0.5,2.54,9.21,-0.01,-0.01,-0.0,29.52,3.0,
985,286,225,11,0.51,2.52,9.12,-0.01,-0.01,0.0,29.52,3.0,
985,286,225,12,0.45,2.48,9.09,-0.01,-0.02,0.0,29.61,3.0,
985,286,225,13,0.52,2.59,9.1,-0.01,-0.01,-0.0,29.57,3.0,
985,286,225,14,0.45,2.52,9.18,-0.01,-0.01,0.0,29.66,3.0,
985,286,225,15,0.43,2.45,9.11,-0.01,-0.01,0.0,29.47,3.0,
985,286,225,16,0.45,2.47,9.15,-0.01,-0.02,-0.0,29.57,3.0,
985,286,225,17,0.44,2.49,9.08,-0.01,-0.01,0.0,29.52,3.0,
985,286,225,18,0.43,2.5,9.07,-0.01,-0.02,0.0,29.61,3.0,
985,286,225,19,0.48,2.51,9.11,-0.01,-0.01,0.0,29.61,3.0,
986,287,226,0,0.45,2.5,9.15,-0.01,-0.01,-0.0,29.61,3.0,
986,287,226,1,0.47,2.5,9.1,-0.01,-0.02,-0.0,29.57,2.0,
986,287,226,2,0.42,2.54,9.17,-0.01,-0.02,0.0,29.61,2.0,
986,287,226,3,0.45,2.54,9.12,-0.01,-0.02,-0.0,29.61,2.0,
986,287,226,4,0.46,2.48,9.17,-0.01,-0.02,0.0,29.52,3.0,
986,287,226,5,0.46,2.46,9.12,-0.01,-0.01,0.0,29.61,3.0,
986,287,226,6,0.46,2.43,9.14,-0.02,-0.01,-0.0,29.57,3.0,
986,287,226,7,0.45,2.49,9.06,-0.01,-0.02,-0.0,29.57,3.0,
986,287,226,8,0.54,2.5,9.12,-0.01,-0.01,0.0,29.57,3.0,
986,287,226,9,0.47,2.48,9.14,-0.02,-0.02,0.0,29.47,3.0,
986,287,226,10,0.54,2.49,9.21,-0.01,-0.02,0.0,29.61,3.0,
986,287,226,11,0.52,2.51,9.12,-0.01,-0.02,-0.0,29.52,3.0,
986,287,226,12,0.5,2.46,9.11,-0.01,-0.02,0.0,29.57,3.0,
986,287,226,13,0.44,2.49,9.12,-0.01,-0.01,-0.0,29.57,3.0,
986,287,226,14,0.4,2.55,9.14,-0.01,-0.01,-0.0,29.57,3.0,
986,287,226,15,0.49,2.5,9.2,-0.01,-0.02,-0.0,29.57,3.0,
986,287,226,16,0.46,2.52,9.18,-0.01,-0.01,-0.0,29.57,3.0,
986,287,226,17,0.46,2.46,9.21,-0.01,-0.02,-0.0,29.52,3.0,
986,287,226,18,0.51,2.48,9.16,-0.01,-0.01,0.0,29.52,3.0,
986,287,226,19,0.46,2.46,9.15,-0.01,-0.02,0.0,29.61,3.0,
987,260,199,0,0.47,2.54,9.13,-0.01,-0.01,0.0,29.52,3.0,
987,260,199,1,0.45,2.5,9.08,-0.01,-0.01,-0.0,29.57,3.0,
987,260,199,2,0.44,2.46,9.06,-0.01,-0.02,-0.0,29.47,3.0,
987,260,199,3,0.42,2.45,9.18,-0.01,-0.01,-0.0,29.52,3.0,
987,260,199,4,0.45,2.45,9.18,-0.01,-0.02,-0.0,29.61,3.0,
987,260,199,5,0.45,2.5,9.05,-0.01,-0.01,0.0,29.61,3.0,
987,260,199,6,0.46,2.48,9.13,-0.01,-0.01,-0.0,29.61,3.0,
987,260,199,7,0.52,2.48,9.13,-0.01,-0.02,0.0,29.57,2.0,
987,260,199,8,0.46,2.5,9.14,-0.01,-0.01,0.0,29.47,2.0,
987,260,199,9,0.48,2.52,9.16,-0.01,-0.02,-0.0,29.57,2.0,
987,260,199,10,0.43,2.42,9.12,-0.01,-0.01,0.0,29.52,3.0,
987,260,199,11,0.48,2.48,9.07,-0.01,-0.01,0.0,29.61,3.0,
987,260,199,12,0.46,2.49,9.16,-0.01,-0.02,-0.0,29.57,3.0,
987,260,199,13,0.45,2.48,9.19,-0.01,-0.02,0.0,29.47,3.0,
987,260,199,14,0.46,2.49,9.18,-0.01,-0.01,0.0,29.57,3.0,
987,260,199,15,0.47,2.49,9.15,-0.01,-0.02,0.0,29.57,3.0,
987,260,199,16,0.43,2.49,9.14,-0.01,-0.02,-0.0,29.57,3.0,
987,260,199,17,0.51,2.51,9.22,-0.01,-0.01,-0.0,29.61,3.0,
987,260,199,18,0.49,2.52,9.16,-0.01,-0.02,-0.0,29.52,3.0,
987,260,199,19,0.5,2.51,9.24,-0.01,-0.01,-0.0,29.61,3.0,
988,281,220,0,0.44,2.53,9.11,-0.01,-0.02,-0.0,29.57,4.0,
988,281,220,1,0.46,2.53,9.22,-0.01,-0.02,0.0,29.52,3.0,
988,281,220,2,0.45,2.44,9.09,-0.01,-0.01,0.0,29.57,3.0,
988,281,220,3,0.51,2.48,9.11,-0.01,-0.01,0.0,29.57,2.0,
988,281,220,4,0.44,2.5,9.22,-0.01,-0.01,0.0,29.66,2.0,
988,281,220,5,0.51,2.44,9.11,-0.01,-0.01,0.0,29.57,2.0,
988,281,220,6,0.51,2.45,9.14,-0.01,-0.01,-0.0,29.61,3.0,
988,281,220,7,0.47,2.52,9.17,-0.01,-0.01,-0.0,29.61,3.0,
988,281,220,8,0.49,2.46,9.05,-0.01,-0.01,0.0,29.61,3.0,
988,281,220,9,0.44,2.53,9.15,-0.01,-0.02,0.0,29.61,3.0,
988,281,220,10,0.44,2.47,9.14,-0.01,-0.02,0.0,29.66,3.0,
988,281,220,11,0.5,2.5,9.22,-0.01,-0.01,0.0,29.57,3.0,
988,281,220,12,0.46,2.53,9.13,-0.01,-0.01,0.0,29.57,3.0,
988,281,220,13,0.46,2.49,9.14,-0.01,-0.02,0.0,29.61,3.0,
988,281,220,14,0.47,2.45,9.13,-0.01,-0.01,0.0,29.61,3.0,
988,281,220,15,0.46,2.45,9.1,-0.01,-0.01,0.0,29.52,3.0,
988,281,220,16,0.43,2.55,9.12,-0.01,-0.02,0.0,29.57,3.0,
988,281,220,17,0.47,2.44,9.16,-0.01,-0.01,-0.0,29.57,3.0,
988,281,220,18,0.48,2.48,9.16,-0.02,-0.01,0.0,29.57,3.0,
988,281,220,19,0.49,2.48,9.17,-0.02,-0.02,0.0,29.57,3.0,
989,264,202,0,0.42,2.43,9.21,-0.01,-0.01,-0.0,29.75,3.0,
989,264,202,1,0.5,2.45,9.19,-0.01,-0.02,-0.0,29.52,3.0,
989,264,202,2,0.46,2.49,9.08,-0.01,-0.01,0.0,29.61,3.0,
989,264,202,3,0.53,2.46,9.12,-0.01,-0.02,0.0,29.61,3.0,
989,264,202,4,0.49,2.52,9.08,-0.01,-0.01,0.0,29.52,3.0,
989,264,202,5,0.46,2.49,9.19,-0.01,-0.01,0.0,29.57,3.0,
989,264,202,6,0.45,2.49,9.11,-0.01,-0.02,0.0,29.57,3.0,
989,264,202,7,0.46,2.51,9.12,-0.01,-0.01,0.0,29.57,3.0,
989,264,202,8,0.41,2.49,9.17,-0.01,-0.01,-0.0,29.61,3.0,
989,264,202,9,0.51,2.5,9.17,-0.01,-0.01,0.0,29.57,3.0,
989,264,202,10,0.45,2.5,9.16,-0.01,-0.02,0.0,29.61,3.0,
989,264,202,11,0.45,2.45,9.15,-0.01,-0.02,-0.0,29.61,2.0,
989,264,202,12,0.44,2.45,9.14,-0.01,-0.01,0.0,29.61,2.0,
989,264,202,13,0.46,2.49,9.09,-0.01,-0.01,-0.0,29.57,2.0,
989,264,202,14,0.5,2.52,9.15,-0.01,-0.02,0.0,29.57,3.0,
989,264,202,15,0.48,2.5,9.12,-0.01,-0.02,0.0,29.57,3.0,
989,264,202,16,0.51,2.49,9.14,-0.01,-0.01,0.0,29.52,3.0,
989,264,202,17,0.44,2.47,9.1,-0.02,-0.02,0.0,29.61,3.0,
989,264,202,18,0.45,2.48,9.11,-0.01,-0.01,0.0,29.61,3.0,
989,264,202,19,0.51,2.47,9.19,-0.01,-0.01,-0.0,29.57,3.0,
990,295,202,0,0.48,2.5,9.17,-0.01,-0.01,0.0,29.61,3.0,
990,295,202,1,0.46,2.43,9.12,-0.01,-0.02,0.0,29.66,3.0,
990,295,202,2,0.51,2.54,9.21,-0.01,-0.02,0.0,29.57,3.0,
990,295,202,3,0.44,2.48,9.16,-0.02,-0.01,0.0,29.57,3.0,
990,295,202,4,0.47,2.53,9.12,-0.01,-0.01,-0.0,29.57,3.0,
990,295,202,5,0.51,2.48,9.16,-0.01,-0.02,-0.0,29.71,3.0,
990,295,202,6,0.47,2.47,9.17,-0.01,-0.01,-0.0,29.42,3.0,
990,295,202,7,0.42,2.44,9.14,-0.01,-0.01,0.0,29.61,2.0,
990,295,202,8,0.48,2.48,9.15,-0.01,-0.02,-0.0,29.61,2.0,
990,295,202,9,0.42,2.55,9.1,-0.01,-0.01,0.0,29.57,2.0,
990,295,202,10,0.46,2.45,9.16,-0.02,-0.02,-0.0,29.57,3.0,
990,295,202,11,0.48,2.46,9.17,-0.01,-0.02,0.0,29.57,3.0,
990,295,202,12,0.48,2.5,9.13,-0.01,-0.02,-0.0,29.57,3.0,
990,295,202,13,0.49,2.46,9.16,-0.01,-0.02,0.0,29.61,3.0,
990,295,202,14,0.49,2.47,9.16,-0.01,-0.01,-0.0,29.61,3.0,
990,295,202,15,0.44,2.49,9.11,-0.01,-0.01,0.0,29.61,3.0,
990,295,202,16,0.47,2.5,9.18,-0.01,-0.01,-0.0,29.57,3.0,
990,295,202,17,0.51,2.48,9.15,-0.01,-0.01,-0.0,29.57,3.0,
990,295,202,18,0.49,2.53,9.2,-0.01,-0.01,0.0,29.57,3.0,
990,295,202,19,0.47,2.47,9.11,-0.01,-0.01,-0.0,29.47,3.0,
991,250,188,0,0.54,2.5,9.11,-0.01,-0.01,-0.0,29.52,3.0,
991,250,188,1,0.47,2.49,9.08,-0.01,-0.01,-0.0,29.57,3.0,
991,250,188,2,0.47,2.47,9.1,-0.01,-0.02,-0.0,29.57,3.0,
991,250,188,3,0.48,2.52,9.14,-0.01,-0.01,-0.0,29.57,3.0,
991,250,188,4,0.43,2.53,9.18,-0.01,-0.01,-0.0,29.52,3.0,
991,250,188,5,0.47,2.41,9.21,-0.01,-0.02,-0.0,29.52,3.0,
991,250,188,6,0.46,2.51,9.11,-0.01,-0.02,0.0,29.61,3.0,
991,250,188,7,0.47,2.44,9.16,-0.01,-0.02,-0.0,29.52,3.0,
991,250,188,8,0.47,2.56,9.17,-0.01,-0.01,0.0,29.52,3.0,
991,250,188,9,0.51,2.49,9.17,-0.01,-0.01,0.0,29.61,3.0,
991,250,188,10,0.43,2.51,9.18,-0.01,-0.01,-0.0,29.47,3.0,
991,250,188,11,0.49,2.42,9.11,-0.01,-0.01,0.0,29.57,3.0,
991,250,188,12,0.49,2.5,9.1,-0.01,-0.01,-0.0,29.47,3.0,
991,250,188,13,0.47,2.47,9.22,-0.02,-0.02,0.0,29.66,3.0,
991,250,188,14,0.49,2.51,9.24,-0.01,-0.02,-0.0,29.57,3.0,
991,250,188,15,0.41,2.52,9.13,-0.01,-0.01,-0.0,29.57,3.0,
991,250,188,16,0.46,2.51,9.15,-0.01,-0.01,0.0,29.61,3.0,
991,250,188,17,0.43,2.48,9.18,-0.01,-0.02,0.0,29.52,3.0,
991,250,188,18,0.46,2.49,9.06,-0.01,-0.02,0.0,29.61,3.0,
991,250,188,19,0.5,2.49,9.2,-0.01,-0.02,-0.0,29.52,3.0,
992,270,208,0,0.45,2.5,9.07,-0.01,-0.02,0.0,29.47,3.0,
992,270,208,1,0.45,2.53,9.05,-0.01,-0.01,-0.0,29.61,3.0,
992,270,208,2,0.54,2.5,9.18,-0.02,-0.02,0.0,29.52,3.0,
992,270,208,3,0.44,2.55,9.14,-0.01,-0.01,-0.0,29.52,3.0,
992,270,208,4,0.48,2.51,9.31,-0.01,-0.01,0.0,29.57,3.0,
992,270,208,5,0.51,2.5,9.25,-0.01,-0.01,-0.0,29.57,3.0,
992,270,208,6,0.49,2.51,9.2,-0.01,-0.01,-0.0,29.57,3.0,
992,270,208,7,0.43,2.49,9.18,-0.01,-0.01,0.0,29.57,3.0,
992,270,208,8,0.51,2.49,9.16,-0.01,-0.01,0.0,29.47,3.0,
992,270,208,9,0.45,2.53,9.13,-0.01,-0.02,-0.0,29.52,3.0,
992,270,208,10,0.45,2.47,9.11,-0.01,-0.01,-0.0,29.61,3.0,
992,270,208,11,0.5,2.5,9.19,-0.01,-0.02,0.0,29.57,3.0,
992,270,208,12,0.41,2.44,9.15,-0.01,-0.01,0.0,29.47,3.0,
992,270,208,13,0.48,2.53,9.1,-0.01,-0.01,-0.0,29.47,3.0,
992,270,208,14,0.42,2.45,9.1,-0.01,-0.01,-0.0,29.57,3.0,
992,270,208,15,0.47,2.47,9.11,-0.01,-0.01,-0.0,29.47,2.0,
992,270,208,16,0.47,2.49,8.99,-0.01,-0.02,0.0,29.52,2.0,
992,270,208,17,0.47,2.45,9.07,-0.01,-0.01,0.0,29.61,2.0,
992,270,208,18,0.48,2.49,9.12,-0.01,-0.02,0.0,29.52,3.0,
992,270,208,19,0.51,2.49,9.04,-0.01,-0.01,0.0,29.52,3.0,
993,378,316,0,0.51,2.49,9.18,-0.01,-0.01,-0.0,29.57,3.0,
993,378,316,1,0.51,2.54,9.05,-0.01,-0.01,0.0,29.52,3.0,
993,378,316,2,0.41,2.45,9.21,-0.01,-0.01,0.0,29.61,3.0,
993,378,316,3,0.48,2.5,9.05,-0.01,-0.02,-0.0,29.61,3.0,
993,378,316,4,0.43,2.5,9.06,-0.01,-0.02,-0.0,29.57,3.0,
993,378,316,5,0.47,2.48,9.08,-0.01,-0.01,0.0,29.57,3.0,
993,378,316,6,0.45,2.51,9.11,-0.01,-0.01,-0.0,29.57,3.0,
993,378,316,7,0.44,2.44,9.11,-0.01,-0.02,0.0,29.57,3.0,
993,378,316,8,0.44,2.53,9.19,-0.01,-0.01,0.0,29.57,3.0,
993,378,316,9,0.46,2.51,9.12,-0.01,-0.01,-0.0,29.52,3.0,
993,378,316,10,0.5,2.49,9.14,-0.01,-0.01,-0.0,29.52,3.0,
993,378,316,11,0.46,2.53,9.05,-0.01,-0.01,-0.0,29.52,3.0,
993,378,316,12,0.41,2.5,9.11,-0.01,-0.02,0.0,29.61,3.0,
993,378,316,13,0.47,2.51,9.14,-0.01,-0.01,0.0,29.66,3.0,
993,378,316,14,0.44,2.53,9.15,-0.01,-0.01,-0.0,29.47,3.0,
993,378,316,15,0.49,2.51,9.18,-0.01,-0.01,-0.0,29.57,2.0,
993,378,316,16,0.45,2.56,9.17,-0.01,-0.02,0.0,29.47,2.0,
993,378,316,17,0.43,2.48,9.15,-0.01,-0.01,0.0,29.52,2.0,
993,378,316,18,0.5,2.49,9.16,-0.01,-0.01,0.0,29.52,3.0,
993,378,316,19,0.51,2.48,9.09,-0.01,-0.02,-0.0,29.52,3.0,
994,286,224,0,0.49,2.41,9.18,-0.01,-0.01,0.0,29.52,3.0,
994,286,224,1,0.42,2.52,9.12,-0.01,-0.01,0.0,29.57,3.0,
994,286,224,2,0.45,2.52,9.14,-0.01,-0.02,-0.0,29.57,3.0,
994,286,224,3,0.48,2.54,9.21,-0.01,-0.01,-0.0,29.57,3.0,
994,286,224,4,0.44,2.5,9.18,-0.01,-0.02,-0.0,29.52,3.0,
994,286,224,5,0.34,2.55,9.27,-0.02,-0.02,0.0,29.52,3.0,
994,286,224,6,0.51,2.5,9.04,-0.01,-0.01,0.0,29.52,3.0,
994,286,224,7,0.48,2.45,9.02,-0.01,-0.01,0.0,29.61,3.0,
994,286,224,8,0.46,2.54,9.08,-0.02,-0.02,-0.0,29.52,3.0,
994,286,224,9,0.47,2.53,9.28,-0.01,-0.01,0.0,29.57,3.0,
994,286,224,10,0.5,2.45,8.92,-0.01,-0.01,0.0,29.57,3.0,
994,286,224,11,0.45,2.44,9.23,-0.01,-0.01,0.0,29.47,3.0,
994,286,224,12,0.47,2.51,9.04,-0.01,-0.01,0.0,29.52,2.0,
994,286,224,13,0.43,2.55,9.0,-0.01,-0.01,0.0,29.52,2.0,
994,286,224,14,0.49,2.41,9.15,-0.01,-0.01,0.0,29.57,2.0,
994,286,224,15,0.37,2.5,9.29,-0.01,-0.02,0.0,29.57,3.0,
994,286,224,16,0.46,2.46,9.02,-0.01,-0.01,-0.0,29.66,3.0,
994,286,224,17,0.49,2.53,9.19,-0.02,-0.01,0.0,29.66,3.0,
994,286,224,18,0.43,2.55,9.36,-0.01,-0.02,0.0,29.47,3.0,
994,286,224,19,0.47,2.56,9.33,-0.01,-0.01,0.0,29.52,3.0,
995,270,208,0,0.51,2.46,9.17,-0.01,-0.02,0.0,29.47,3.0,
995,270,208,1,0.51,2.59,9.25,-0.02,-0.02,-0.0,29.42,3.0,
995,270,208,2,0.53,2.57,9.3,-0.01,-0.02,0.0,29.52,3.0,
995,270,208,3,0.46,2.5,9.19,-0.01,-0.02,0.0,29.61,3.0,
995,270,208,4,0.5,2.49,9.07,-0.02,-0.02,0.0,29.52,3.0,
995,270,208,5,0.39,2.43,9.04,-0.01,-0.02,-0.0,29.57,3.0,
995,270,208,6,0.48,2.42,9.0,-0.01,-0.02,0.0,29.47,3.0,
995,270,208,7,0.44,2.38,9.05,-0.01,-0.02,0.0,29.57,3.0,
995,270,208,8,0.47,2.41,9.01,-0.01,-0.01,-0.0,29.61,2.0,
995,270,208,9,0.43,2.42,8.98,-0.02,-0.01,-0.0,29.42,2.0,
995,270,208,10,0.46,2.38,8.93,-0.01,-0.02,0.0,29.52,2.0,
995,270,208,11,0.46,2.36,8.96,-0.01,-0.01,-0.0,29.52,3.0,
995,270,208,12,0.47,2.45,8.93,-0.01,-0.01,-0.0,29.52,3.0,
995,270,208,13,0.46,2.44,8.89,-0.01,-0.01,0.0,29.57,3.0,
995,270,208,14,0.45,2.43,9.0,-0.01,-0.01,0.0,29.57,3.0,
995,270,208,15,0.39,2.42,9.07,-0.01,-0.01,0.0,29.47,3.0,
995,270,208,16,0.47,2.48,9.14,-0.01,-0.01,0.0,29.52,3.0,
995,270,208,17,0.45,2.48,9.19,-0.01,-0.02,0.0,29.61,3.0,
995,270,208,18,0.5,2.54,9.21,-0.01,-0.01,0.0,29.61,3.0,
995,270,208,19,0.46,2.47,9.22,-0.01,-0.01,-0.0,29.52,3.0,
996,301,240,0,0.42,2.5,9.26,-0.01,-0.02,0.0,29.57,3.0,
996,301,240,1,0.44,2.5,9.09,-0.02,-0.01,0.0,29.52,3.0,
996,301,240,2,0.44,2.49,9.28,-0.01,-0.01,-0.0,29.52,3.0,
996,301,240,3,0.5,2.43,9.15,-0.01,-0.01,0.0,29.57,3.0,
996,301,240,4,0.49,2.51,9.2,-0.01,-0.02,-0.0,29.57,3.0,
996,301,240,5,0.52,2.43,9.15,-0.01,-0.01,0.0,29.57,3.0,
996,301,240,6,0.47,2.51,9.16,-0.01,-0.02,0.0,29.47,2.0,
996,301,240,7,0.46,2.52,9.14,-0.01,-0.01,0.0,29.52,2.0,
996,301,240,8,0.49,2.49,9.11,-0.01,-0.02,0.0,29.52,2.0,
996,301,240,9,0.48,2.49,9.11,-0.01,-0.01,0.0,29.57,3.0,
996,301,240,10,0.45,2.53,9.12,-0.01,-0.01,0.0,29.47,3.0,
996,301,240,11,0.5,2.5,9.18,-0.01,-0.01,0.0,29.57,3.0,
996,301,240,12,0.46,2.52,9.16,-0.01,-0.02,-0.0,29.57,3.0,
996,301,240,13,0.45,2.53,9.14,-0.01,-0.02,-0.0,29.57,3.0,
996,301,240,14,0.48,2.5,9.17,-0.01,-0.02,0.0,29.61,3.0,
996,301,240,15,0.51,2.51,9.19,-0.01,-0.01,0.0,29.52,3.0,
996,301,240,16,0.48,2.49,9.14,-0.01,-0.02,0.0,29.52,3.0,
996,301,240,17,0.45,2.49,9.14,-0.01,-0.01,-0.0,29.52,3.0,
996,301,240,18,0.47,2.53,9.19,-0.01,-0.01,-0.0,29.47,3.0,
996,301,240,19,0.52,2.41,9.15,-0.01,-0.02,0.0,29.57,3.0,
997,267,206,0,0.47,2.45,9.13,-0.01,-0.02,0.0,29.47,4.0,
997,267,206,1,0.44,2.53,9.21,-0.01,-0.02,-0.0,29.52,3.0,
997,267,206,2,0.47,2.51,9.19,-0.01,-0.02,0.0,29.57,3.0,
997,267,206,3,0.46,2.5,9.06,-0.02,-0.01,0.0,29.57,2.0,
997,267,206,4,0.42,2.53,9.15,-0.01,-0.02,-0.0,29.57,2.0,
997,267,206,5,0.44,2.48,9.12,-0.01,-0.01,-0.0,29.52,2.0,
997,267,206,6,0.46,2.5,9.09,-0.01,-0.01,0.0,29.52,3.0,
997,267,206,7,0.51,2.49,9.11,-0.01,-0.01,-0.0,29.52,3.0,
997,267,206,8,0.48,2.39,9.1,-0.01,-0.02,-0.0,29.52,3.0,
997,267,206,9,0.45,2.56,9.14,-0.01,-0.02,0.0,29.47,3.0,
997,267,206,10,0.46,2.45,9.15,-0.01,-0.02,0.0,29.47,3.0,
997,267,206,11,0.48,2.51,9.15,-0.01,-0.01,-0.0,29.47,3.0,
997,267,206,12,0.46,2.48,9.14,-0.01,-0.01,0.0,29.52,3.0,
997,267,206,13,0.47,2.5,9.17,-0.01,-0.02,-0.0,29.52,3.0,
997,267,206,14,0.47,2.51,9.19,-0.01,-0.01,0.0,29.52,3.0,
997,267,206,15,0.46,2.54,9.11,-0.01,-0.02,-0.0,29.42,3.0,
997,267,206,16,0.5,2.46,9.22,-0.01,-0.01,-0.0,29.52,3.0,
997,267,206,17,0.48,2.54,9.23,-0.01,-0.02,0.0,29.57,3.0,
997,267,206,18,0.41,2.5,9.13,-0.01,-0.02,0.0,29.47,3.0,
997,267,206,19,0.51,2.51,9.09,-0.01,-0.02,-0.0,29.57,3.0,
998,271,208,0,0.45,2.5,9.2,-0.01,-0.02,0.0,29.47,3.0,
998,271,208,1,0.51,2.47,9.15,-0.01,-0.02,-0.0,29.52,3.0,
998,271,208,2,0.46,2.51,9.13,-0.01,-0.01,0.0,29.66,3.0,
998,271,208,3,0.49,2.48,9.17,-0.01,-0.02,0.0,29.57,3.0,
998,271,208,4,0.42,2.49,9.19,-0.01,-0.01,-0.0,29.57,3.0,
998,271,208,5,0.49,2.52,9.21,-0.01,-0.01,0.0,29.47,3.0,
998,271,208,6,0.47,2.49,9.15,-0.01,-0.02,-0.0,29.47,3.0,
998,271,208,7,0.48,2.53,9.18,-0.01,-0.02,-0.0,29.61,3.0,
998,271,208,8,0.49,2.47,9.17,-0.01,-0.01,0.0,29.52,3.0,
998,271,208,9,0.46,2.51,9.21,-0.01,-0.02,0.0,29.52,3.0,
998,271,208,10,0.44,2.47,9.15,-0.01,-0.02,0.0,29.52,3.0,
998,271,208,11,0.44,2.53,9.2,-0.01,-0.02,-0.0,29.57,3.0,
998,271,208,12,0.46,2.47,9.18,-0.01,-0.01,-0.0,29.57,3.0,
998,271,208,13,0.48,2.48,9.21,-0.01,-0.02,0.0,29.66,3.0,
998,271,208,14,0.46,2.55,9.17,-0.01,-0.02,0.0,29.57,3.0,
998,271,208,15,0.4,2.47,9.17,-0.01,-0.02,-0.0,29.57,3.0,
998,271,208,16,0.48,2.46,9.06,-0.01,-0.01,0.0,29.52,3.0,
998,271,208,17,0.45,2.52,9.09,-0.01,-0.02,0.0,29.52,3.0,
